wavelength,alpha
400,-60.59
400.14,-64.4
400.3,-68.29
400.48,-72.23
400.64,-75.44
400.8,-78.44
400.98,-81.62
401.16,-84.64
401.3,-86.9
401.5,-90.02
401.72,-93.34
401.92,-96.28
402.1,-98.88
402.26,-101.16
402.48,-104.27
402.58,-105.67
402.88,-109.87
403,-111.56
403.2,-114.36
403.42,-117.47
403.58,-119.75
403.72,-121.76
403.9,-124.37
404.06,-126.72
404.32,-130.61
404.46,-132.74
404.64,-135.53
404.76,-137.42
404.98,-140.96
405.14,-143.6
405.32,-146.64
405.48,-149.41
405.7,-153.34
405.86,-156.29
406.06,-160.1
406.26,-164.06
406.42,-167.34
406.62,-171.6
406.8,-175.6
406.98,-179.77
407.12,-183.14
407.32,-188.17
407.52,-193.48
407.68,-197.94
407.86,-203.22
408.02,-208.16
408.2,-214.03
408.38,-220.26
408.56,-226.9
408.74,-234
408.92,-241.6
409.1,-249.78
409.3,-259.64
409.46,-268.19
409.64,-278.62
409.84,-291.37
410.02,-304.06
410.2,-318.12
410.38,-333.78
410.56,-351.36
410.74,-371.25
410.92,-393.96
411.1,-420.17
411.28,-450.78
411.46,-487.05
411.64,-530.73
411.82,-584.43
412,-652.1
412.18,-740.09
412.38,-875.26
412.56,-1053.93
412.74,-1334.96
412.82,-1519.19
412.89,-1731.09
412.912,-1811.17
412.932,-1891.01
412.952,-1978.55
412.97,-2064.88
412.988,-2159.44
413.006,-2263.44
413.024,-2378.38
413.042,-2506.08
413.06,-2648.79
413.08,-2828.41
413.098,-3012.98
413.116,-3224.12
413.134,-3467.99
413.152,-3752.87
413.17,-4090.05
413.188,-4495.39
413.206,-4991.88
413.36699999999996,null
413.369,null
413.524,4893.68
413.544,4334.31
413.562,3928.5
413.58,3590.96
413.598,3305.8
413.616,3061.7
413.634,2850.39
413.652,2665.67
413.67,2502.83
413.688,2358.18
413.706,2228.85
413.724,2112.51
413.742,2007.31
413.76,1911.72
413.778,1824.48
413.796,1744.53
413.816,1663.2
413.834,1595.94
413.86,1507.43
413.968,1221.53
414.088,1004.05
414.248,805.93
414.408,668.48
414.588,556.68
414.768,473.4
414.948,408.92
415.128,357.47
415.308,315.43
415.488,280.4
415.668,250.74
415.848,225.27
416.028,203.15
416.208,183.74
416.388,166.55
416.588,149.61
416.768,135.98
416.948,123.64
417.128,112.41
417.308,102.13
417.488,92.68
417.648,84.89
417.828,76.73
418.008,69.14
418.208,61.29
418.388,54.69
418.568,48.49
418.728,43.28
418.948,36.52
419.108,31.87
419.268,27.43
419.488,21.62
419.648,17.6
419.808,13.73
419.988,9.54
420.208,4.64
420.368,1.21
420.568,-2.93
420.748,-6.53
420.908,-9.64
421.048,-12.3
421.248,-16
421.428,-19.25
421.628,-22.78
421.808,-25.89
422.028,-29.62
422.168,-31.96
422.428,-36.25
422.608,-39.19
422.628,-39.51
422.808,-42.44
423.028,-46
423.268,-49.91
423.488,-53.53
423.648,-56.2
423.788,-58.57
423.988,-62.03
424.168,-65.24
424.328,-68.19
424.528,-72.04
424.688,-75.28
424.888,-79.59
425.088,-84.26
425.248,-88.34
425.428,-93.4
425.608,-99.1
425.788,-105.67
425.968,-113.45
426.168,-124.14
426.348,-136.6
426.528,-153.43
426.708,-177.98
426.828,-202.11
426.93,-231.53
426.954,-240.27
426.974,-248.26
426.992,-256.07
427.012,-265.54
427.03,-274.89
427.048,-285.12
427.066,-296.38
427.084,-308.83
427.102,-322.67
427.12,-338.16
427.138,-355.61
427.156,-375.42
427.174,-398.1
427.192,-424.35
427.21,-455.08
427.228,-491.55
427.246,-535.55
427.264,-589.68
427.282,-657.91
427.3,-746.61
427.32,-882.63
427.338,-1061.86
427.356,-1342.19
427.376,-1923.89
427.396,-3483.87
427.419,null
427.42100000000005,null
427.452,2449.45
427.47,1546.3
427.488,1119.65
427.508,849.72
427.528,679.5
427.546,572.37
427.564,491.96
427.582,429.35
427.602,374.26
427.62,334.07
427.638,300.48
427.656,271.99
427.674,247.51
427.692,226.25
427.71,207.61
427.728,191.13
427.746,176.45
427.766,161.92
427.782,151.43
427.8,140.68
427.82,129.85
427.838,120.98
427.858,111.96
427.876,104.51
427.892,98.35
427.918,89.18
428.04,56.16
428.18,30.96
428.34,11.15
428.52,-4.67
428.7,-16.43
428.88,-25.62
429.06,-33.09
429.26,-39.98
429.44,-45.26
429.62,-49.89
429.8,-54.02
429.98,-57.75
430.16,-61.16
430.36,-64.65
430.54,-67.56
430.7,-70
430.86,-72.32
431.08,-75.34
431.26,-77.69
431.4,-79.45
431.58,-81.64
431.72,-83.29
431.92,-85.58
432.08,-87.36
432.3,-89.74
432.46,-91.43
432.68,-93.7
432.82,-95.12
433.04,-97.31
433.26,-99.46
433.4,-100.81
433.66,-103.28
433.78,-104.41
433.9,-105.53
434.14,-107.75
434.32,-109.4
434.5,-111.04
434.66,-112.49
434.92,-114.83
435,-115.54
435.18,-117.16
435.44,-119.47
435.52,-120.19
435.72,-121.96
435.88,-123.39
436.06,-124.98
436.22,-126.41
436.42,-128.18
436.62,-129.96
436.9,-132.46
437.08,-134.08
437.14,-134.61
437.36,-136.59
437.58,-138.58
437.8,-140.58
437.82,-140.77
438.12,-143.51
438.18,-144.07
438.4,-146.1
438.62,-148.15
438.82,-150.03
439.06,-152.31
439.16,-153.26
439.34,-154.99
439.46,-156.15
439.7,-158.49
439.92,-160.66
440.14,-162.86
440.24,-163.86
440.4,-165.48
440.64,-167.94
440.78,-169.39
441.04,-172.12
441.22,-174.03
441.38,-175.75
441.52,-177.27
441.76,-179.91
441.86,-181.02
442.06,-183.27
442.26,-185.55
442.42,-187.4
442.6,-189.51
442.74,-191.17
442.98,-194.06
443.2,-196.76
443.38,-199.01
443.54,-201.03
443.66,-202.57
443.86,-205.17
444.04,-207.55
444.22,-209.97
444.42,-212.71
444.6,-215.22
444.76,-217.49
444.98,-220.67
445.12,-222.73
445.32,-225.73
445.52,-228.79
445.72,-231.92
445.9,-234.8
446.02,-236.75
446.22,-240.06
446.42,-243.45
446.5,-244.83
446.72,-248.69
446.9,-251.93
447.06,-254.87
447.32,-259.78
447.5,-263.28
447.66,-266.46
447.88,-270.95
448.02,-273.88
448.18,-277.3
448.34,-280.8
448.56,-285.75
448.68,-288.52
448.84,-292.29
449.06,-297.63
449.26,-302.65
449.44,-307.31
449.62,-312.11
449.78,-316.5
449.98,-322.16
450.16,-327.43
450.34,-332.87
450.5,-337.86
450.7,-344.31
450.9,-351.01
451.08,-357.27
451.24,-363.03
451.4,-368.98
451.6,-376.7
451.76,-383.12
451.98,-392.32
452.18,-401.09
452.34,-408.4
452.48,-415.03
452.66,-423.89
452.86,-434.2
453.04,-443.94
453.22,-454.15
453.38,-463.65
453.56,-474.85
453.76,-487.97
453.94,-500.46
454.12,-513.63
454.3,-527.56
454.48,-542.32
454.66,-557.97
454.84,-574.61
455.02,-592.34
455.2,-611.27
455.38,-631.52
455.56,-653.26
455.74,-676.64
455.92,-701.86
456.1,-729.17
456.28,-758.82
456.46,-791.15
456.64,-826.53
456.82,-865.43
457,-908.4
457.18,-956.13
457.36,-1009.46
457.54,-1069.45
457.72,-1137.43
457.9,-1215.13
458.08,-1304.81
458.26,-1409.5
458.44,-1533.3
458.62,-1682.02
458.8,-1864.05
458.98,-2092.01
459.16,-2385.87
459.34,-2779.08
459.54,-3408.09
459.72,-4288.76
460.403,null
460.405,null
460.984,4900.84
461.104,4049.34
461.264,3283.28
461.424,2757.3
461.604,2333.03
461.784,2019.29
461.964,1777.84
462.144,1586.24
462.324,1430.48
462.504,1301.35
462.684,1192.54
462.864,1099.6
463.044,1019.27
463.224,949.14
463.404,887.38
463.584,832.56
463.764,783.58
463.944,739.53
464.124,699.71
464.304,663.53
464.504,627
464.684,597.02
464.864,569.42
465.044,543.93
465.224,520.31
465.404,498.37
465.584,477.92
465.764,458.81
465.944,440.92
466.124,424.13
466.304,408.34
466.484,393.46
466.664,379.41
466.844,366.12
467.004,354.9
467.204,341.59
467.404,329.01
467.584,318.27
467.764,308.03
467.944,298.26
468.104,289.94
468.284,280.97
468.484,271.44
468.644,264.14
468.784,257.96
468.984,249.47
469.164,242.14
469.364,234.32
469.564,226.82
469.744,220.32
469.944,213.37
470.104,208
470.324,200.88
470.484,195.88
470.684,189.83
470.824,185.72
470.964,181.71
471.184,175.6
471.404,169.71
471.544,166.07
471.724,161.51
471.864,158.05
472.064,153.24
472.224,149.49
472.444,144.48
472.624,140.5
472.764,137.47
472.964,133.25
473.124,129.95
473.324,125.93
473.504,122.4
473.704,118.57
473.924,114.47
474.044,112.28
474.244,108.7
474.424,105.55
474.664,101.45
474.804,99.11
474.964,96.48
475.204,92.62
475.384,89.79
475.544,87.32
475.684,85.19
475.884,82.2
476.064,79.56
476.264,76.68
476.364,75.26
476.564,72.46
476.764,69.71
476.984,66.74
477.124,64.88
477.364,61.75
477.484,60.2
477.664,57.91
477.824,55.9
478.044,53.18
478.204,51.23
478.444,48.35
478.584,46.69
478.764,44.58
478.984,42.04
479.124,40.44
479.324,38.18
479.524,35.95
479.704,33.97
479.784,33.09
479.984,30.92
480.144,29.2
480.384,26.65
480.604,24.34
480.724,23.09
480.904,21.23
481.104,19.18
481.284,17.35
481.384,16.34
481.684,13.34
481.784,12.34
481.964,10.56
482.144,8.79
482.384,6.45
482.464,5.67
482.704,3.35
482.884,1.62
482.984,0.67
483.204,-1.44
483.484,-4.1
483.504,-4.28
483.724,-6.37
483.884,-7.87
484.084,-9.76
484.384,-12.57
484.464,-13.33
484.644,-15.01
484.784,-16.33
485.064,-18.95
485.124,-19.52
485.344,-21.58
485.624,-24.22
485.824,-26.12
485.864,-26.49
486.064,-28.39
486.264,-30.3
486.544,-32.99
486.564,-33.19
486.764,-35.12
486.984,-37.27
487.184,-39.24
487.304,-40.43
487.484,-42.23
487.744,-44.86
487.904,-46.5
488.044,-47.95
488.344,-51.1
488.524,-53.03
488.624,-54.11
488.764,-55.64
488.944,-57.64
489.144,-59.9
489.404,-62.91
489.524,-64.33
489.704,-66.5
489.844,-68.22
490.064,-70.99
490.244,-73.32
490.484,-76.53
490.604,-78.18
490.804,-81.01
490.944,-83.05
491.184,-86.68
491.364,-89.52
491.524,-92.14
491.684,-94.86
491.864,-98.04
492.104,-102.52
492.244,-105.27
492.444,-109.4
492.604,-112.89
492.804,-117.51
492.964,-121.45
493.164,-126.7
493.324,-131.21
493.504,-136.65
493.684,-142.54
493.864,-148.95
494.024,-155.15
494.204,-162.8
494.404,-172.28
494.584,-181.88
494.764,-192.72
494.944,-205.08
495.124,-219.34
495.304,-236.02
495.484,-255.84
495.664,-279.84
495.844,-309.58
496.024,-347.49
496.204,-397.63
496.404,-476.67
496.584,-585.35
496.704,-694.25
496.806,-828.57
496.828,-865.2
496.848,-901.61
496.868,-941.42
496.886,-980.56
496.904,-1023.3
496.922,-1070.14
496.94,-1121.72
496.958,-1178.79
496.976,-1242.28
496.994,-1313.33
497.014,-1402.92
497.032,-1495.17
497.05,-1600.92
497.068,-1723.38
497.086,-1866.85
497.104,-2037.27
497.122,-2243
497.14,-2496.31
497.158,-2815.86
497.176,-3231.54
497.196,-3869.54
497.214,-4711.03
497.29499999999996,null
497.297,null
497.384,4246.38
497.404,3452.52
497.422,2952.85
497.44,2577.76
497.46,2257.31
497.478,2028.99
497.496,1841.67
497.514,1685.22
497.532,1552.58
497.55,1438.7
497.568,1339.87
497.586,1253.28
497.604,1176.78
497.622,1108.72
497.64,1047.76
497.658,992.85
497.676,943.12
497.696,893.11
497.714,852.18
497.732,814.62
497.75,780.03
497.768,748.07
497.794,705.97
497.916,555.42
498.056,441.97
498.216,354.34
498.396,285.97
498.576,236.59
498.756,199.19
498.936,169.82
499.116,146.1
499.296,126.51
499.476,110.02
499.676,94.48
499.856,82.46
500.036,71.91
500.196,63.55
500.376,55.1
500.576,46.7
500.756,39.88
500.936,33.66
501.136,27.35
501.316,22.13
501.516,16.78
501.656,13.28
501.836,9.04
502.016,5.07
502.216,0.93
502.416,-2.95
502.596,-6.25
502.756,-9.04
502.916,-11.71
503.076,-14.27
503.276,-17.33
503.436,-19.67
503.596,-21.93
503.756,-24.11
503.956,-26.73
504.156,-29.25
504.376,-31.91
504.536,-33.78
504.716,-35.82
504.896,-37.8
505.036,-39.3
505.216,-41.18
505.356,-42.61
505.556,-44.6
505.796,-46.92
505.976,-48.61
506.116,-49.9
506.336,-51.88
506.496,-53.29
506.616,-54.33
506.856,-56.37
507.096,-58.36
507.236,-59.5
507.436,-61.1
507.596,-62.36
507.796,-63.91
507.956,-65.13
508.196,-66.93
508.296,-67.67
508.476,-68.99
508.716,-70.72
508.916,-72.14
509.116,-73.54
509.256,-74.51
509.456,-75.88
509.636,-77.1
509.676,-77.36
509.916,-78.97
510.136,-80.42
510.376,-81.98
510.436,-82.37
510.676,-83.91
510.916,-85.43
510.976,-85.8
511.216,-87.31
511.436,-88.67
511.636,-89.9
511.716,-90.38
511.856,-91.24
512.076,-92.57
512.236,-93.53
512.476,-94.96
512.696,-96.26
512.796,-96.84
512.936,-97.67
513.116,-98.72
513.276,-99.64
513.456,-100.69
513.656,-101.84
513.936,-103.44
514.156,-104.69
514.216,-105.02
514.356,-105.82
514.676,-107.62
514.776,-108.17
514.896,-108.85
515.216,-110.63
515.416,-111.73
515.496,-112.18
515.676,-113.17
515.956,-114.71
515.996,-114.92
516.296,-116.57
516.336,-116.78
516.636,-118.42
516.796,-119.28
516.916,-119.94
517.056,-120.69
517.236,-121.67
517.436,-122.74
517.596,-123.61
517.776,-124.57
518.056,-126.08
518.276,-127.25
518.336,-127.58
518.656,-129.29
518.676,-129.39
518.896,-130.57
519.036,-131.31
519.256,-132.49
519.556,-134.08
519.656,-134.62
519.776,-135.25
519.936,-136.11
520.216,-137.59
520.316,-138.13
520.536,-139.29
520.796,-140.68
520.856,-140.99
521.116,-142.38
521.336,-143.54
521.496,-144.4
521.556,-144.71
521.876,-146.42
521.996,-147.05
522.156,-147.91
522.276,-148.54
522.496,-149.72
522.636,-150.46
522.856,-151.64
523.056,-152.7
523.176,-153.35
523.376,-154.41
523.576,-155.49
523.796,-156.66
523.936,-157.42
524.096,-158.27
524.416,-160
524.436,-160.1
524.776,-161.94
524.796,-162.04
524.976,-163.02
525.216,-164.31
525.456,-165.62
525.616,-166.48
525.756,-167.25
525.976,-168.44
526.176,-169.54
526.236,-169.86
526.556,-171.62
526.596,-171.83
526.896,-173.48
527.116,-174.69
527.176,-175.03
527.476,-176.68
527.536,-177.02
527.736,-178.12
527.916,-179.13
528.036,-179.79
528.296,-181.25
528.396,-181.8
528.596,-182.93
528.756,-183.82
529.056,-185.51
529.136,-185.97
529.316,-186.98
529.496,-188.01
529.656,-188.91
529.996,-190.85
530.176,-191.89
530.216,-192.11
530.536,-193.95
530.576,-194.19
530.756,-195.22
530.996,-196.62
531.156,-197.54
531.316,-198.48
531.456,-199.29
531.736,-200.93
531.896,-201.88
531.996,-202.46
532.216,-203.76
532.516,-205.54
532.696,-206.62
532.756,-206.97
532.916,-207.93
533.236,-209.85
533.296,-210.22
533.516,-211.54
533.696,-212.64
533.816,-213.36
534.016,-214.58
534.196,-215.69
534.336,-216.54
534.536,-217.78
534.696,-218.76
534.996,-220.62
535.056,-221
535.316,-222.62
535.476,-223.62
535.616,-224.51
535.776,-225.51
536.016,-227.03
536.236,-228.43
536.396,-229.46
536.516,-230.22
536.796,-232.02
536.896,-232.67
537.156,-234.36
537.376,-235.79
537.536,-236.83
537.576,-237.1
537.816,-238.67
538.076,-240.39
538.236,-241.46
538.296,-241.85
538.616,-243.99
538.716,-244.67
538.836,-245.47
539.036,-246.82
539.276,-248.45
539.376,-249.14
539.576,-250.5
539.816,-252.15
540.036,-253.67
540.196,-254.79
540.276,-255.34
540.616,-257.72
540.716,-258.42
540.876,-259.55
541.016,-260.55
541.196,-261.82
541.516,-264.11
541.676,-265.26
541.736,-265.7
542.036,-267.87
542.216,-269.18
542.256,-269.48
542.516,-271.38
542.676,-272.56
542.916,-274.34
543.136,-275.99
543.296,-277.18
543.336,-277.49
543.556,-279.14
543.776,-280.81
544.016,-282.64
544.136,-283.56
544.336,-285.1
544.576,-286.96
544.656,-287.59
544.816,-288.83
545.096,-291.03
545.296,-292.61
545.436,-293.73
545.496,-294.2
545.836,-296.92
545.856,-297.09
546.096,-299.02
546.256,-300.32
546.496,-302.28
546.596,-303.1
546.876,-305.41
547.096,-307.24
547.216,-308.24
547.396,-309.75
547.536,-310.93
547.816,-313.31
547.976,-314.67
548.016,-315.02
548.216,-316.73
548.536,-319.5
548.676,-320.72
548.796,-321.77
548.936,-323
549.176,-325.12
549.376,-326.9
549.536,-328.33
549.796,-330.67
549.816,-330.86
550.056,-333.03
550.316,-335.41
550.376,-335.96
550.696,-338.92
550.856,-340.41
550.916,-340.98
551.116,-342.85
551.296,-344.55
551.456,-346.07
551.736,-348.75
551.896,-350.29
552.056,-351.84
552.296,-354.18
552.456,-355.75
552.616,-357.33
552.716,-358.32
553.036,-361.52
553.176,-362.92
553.356,-364.74
553.536,-366.57
553.736,-368.62
553.816,-369.44
554.076,-372.13
554.176,-373.17
554.476,-376.32
554.596,-377.58
554.836,-380.13
554.896,-380.78
555.056,-382.49
555.216,-384.21
555.416,-386.38
555.576,-388.13
555.896,-391.65
556.076,-393.65
556.196,-394.99
556.436,-397.69
556.596,-399.5
556.796,-401.78
556.996,-404.08
557.076,-405
557.276,-407.32
557.396,-408.72
557.636,-411.54
557.836,-413.91
557.936,-415.1
558.236,-418.7
558.416,-420.88
558.576,-422.83
558.756,-425.04
558.956,-427.51
559.136,-429.75
559.336,-432.26
559.496,-434.28
559.676,-436.57
559.876,-439.13
560.056,-441.45
560.236,-443.79
560.376,-445.62
560.516,-447.46
560.756,-450.64
560.896,-452.51
560.996,-453.85
561.216,-456.82
561.396,-459.27
561.616,-462.29
561.796,-464.78
561.916,-466.45
562.196,-470.38
562.376,-472.93
562.556,-475.5
562.736,-478.09
562.936,-480.99
563.116,-483.62
563.256,-485.68
563.416,-488.05
563.516,-489.54
563.756,-493.14
563.916,-495.56
564.116,-498.61
564.256,-500.76
564.516,-504.79
564.716,-507.92
564.916,-511.08
564.996,-512.35
565.236,-516.19
565.376,-518.45
565.596,-522.03
565.656,-523.01
565.936,-527.63
566.116,-530.63
566.356,-534.67
566.536,-537.73
566.696,-540.47
566.856,-543.23
567.036,-546.36
567.236,-549.87
567.396,-552.7
567.576,-555.91
567.776,-559.51
567.916,-562.05
568.096,-565.34
568.296,-569.03
568.416,-571.26
568.676,-576.14
568.876,-579.94
569.056,-583.38
569.216,-586.47
569.416,-590.37
569.516,-592.33
569.676,-595.49
569.936,-600.68
570.136,-604.72
570.256,-607.16
570.416,-610.44
570.616,-614.58
570.756,-617.5
570.956,-621.71
571.116,-625.11
571.316,-629.4
571.536,-634.17
571.756,-639
571.916,-642.54
572.016,-644.77
572.236,-649.72
572.436,-654.27
572.636,-658.87
572.816,-663.05
573.016,-667.75
573.176,-671.54
573.376,-676.33
573.556,-680.68
573.736,-685.08
573.916,-689.52
574.096,-694.01
574.276,-698.54
574.456,-703.12
574.636,-707.74
574.756,-710.85
574.916,-715.03
575.116,-720.31
575.316,-725.65
575.496,-730.51
575.696,-735.97
575.876,-740.94
576.076,-746.53
576.176,-749.34
576.416,-756.17
576.556,-760.2
576.736,-765.43
576.936,-771.31
577.156,-777.86
577.316,-782.68
577.496,-788.16
577.616,-791.85
577.796,-797.43
578.016,-804.34
578.136,-808.15
578.356,-815.21
578.536,-821.06
578.756,-828.3
578.896,-832.96
579.056,-838.34
579.236,-844.46
579.456,-852.04
579.616,-857.62
579.776,-863.26
579.956,-869.68
580.156,-876.9
580.356,-884.22
580.516,-890.15
580.656,-895.39
580.816,-901.44
581.036,-909.87
581.256,-918.43
581.416,-924.74
581.576,-931.12
581.796,-940.01
581.976,-947.39
582.136,-954.03
582.336,-962.44
582.516,-970.11
582.636,-975.28
582.856,-984.88
583.076,-994.64
583.196,-1000.03
583.396,-1009.12
583.576,-1017.42
583.776,-1026.78
583.896,-1032.46
584.096,-1042.05
584.296,-1051.79
584.456,-1059.69
584.636,-1068.7
584.836,-1078.86
584.976,-1086.07
585.176,-1096.51
585.376,-1107.12
585.556,-1116.82
585.736,-1126.66
585.916,-1136.65
586.096,-1146.79
586.296,-1158.24
586.496,-1169.88
586.616,-1176.96
586.836,-1190.13
586.996,-1199.87
587.136,-1208.5
587.356,-1222.28
587.516,-1232.47
587.696,-1244.11
587.916,-1258.59
588.056,-1267.96
588.216,-1278.81
588.416,-1292.6
588.596,-1305.23
588.816,-1320.96
588.956,-1331.14
589.116,-1342.94
589.296,-1356.43
589.516,-1373.24
589.716,-1388.84
589.896,-1403.14
590.036,-1414.44
590.216,-1429.2
590.396,-1444.23
590.576,-1459.54
590.736,-1473.38
590.936,-1491.01
591.136,-1509.01
591.316,-1525.54
591.476,-1540.5
591.676,-1559.56
591.856,-1577.07
592.056,-1596.93
592.216,-1613.14
592.396,-1631.72
592.556,-1648.56
592.716,-1665.7
592.936,-1689.79
593.096,-1707.7
593.276,-1728.25
593.436,-1746.89
593.636,-1770.69
593.836,-1795.07
594.016,-1817.53
594.176,-1837.91
594.356,-1861.33
594.556,-1887.98
594.756,-1915.32
594.916,-1937.7
595.096,-1963.45
595.276,-1989.81
595.456,-2016.81
595.616,-2041.36
595.796,-2069.63
595.976,-2098.61
596.156,-2128.33
596.356,-2162.24
596.516,-2190.08
596.696,-2222.18
596.876,-2255.14
597.056,-2288.99
597.256,-2327.69
597.416,-2359.51
597.616,-2400.41
597.796,-2438.34
597.976,-2477.36
598.156,-2517.53
598.336,-2558.91
598.516,-2601.54
598.696,-2645.48
598.856,-2685.68
599.036,-2732.27
599.216,-2780.36
599.396,-2830.02
599.596,-2887.13
599.776,-2940.37
599.956,-2995.44
600.136,-3052.44
600.316,-3111.47
600.496,-3172.63
600.676,-3236.06
600.856,-3301.86
601.036,-3370.19
601.216,-3441.18
601.396,-3514.99
601.576,-3591.8
601.756,-3671.79
601.936,-3755.15
602.116,-3842.12
602.296,-3932.92
602.476,-4027.81
602.656,-4127.08
602.836,-4231.02
603.016,-4339.99
603.196,-4454.35
603.376,-4574.51
603.556,-4700.91
603.736,-4834.07
603.916,-4974.53
610.509,null
610.511,null
618.17,4967.16
618.35,4863.37
618.53,4764.3
618.71,4669.64
618.89,4579.09
619.07,4492.41
619.25,4409.35
619.43,4329.7
619.61,4253.25
619.79,4179.81
619.97,4109.23
620.15,4041.33
620.33,3975.97
620.51,3913.01
620.69,3852.34
620.87,3793.82
621.05,3737.34
621.23,3682.82
621.41,3630.14
621.59,3579.23
621.77,3529.99
621.95,3482.35
622.15,3431.2
622.33,3386.7
622.51,3343.58
622.69,3301.79
622.87,3261.25
623.05,3221.93
623.21,3187.96
623.39,3150.79
623.57,3114.69
623.77,3075.79
623.95,3041.82
624.13,3008.79
624.29,2980.2
624.47,2948.86
624.65,2918.37
624.83,2888.69
625.01,2859.79
625.19,2831.65
625.37,2804.24
625.55,2777.53
625.73,2751.5
625.91,2726.13
626.09,2701.39
626.27,2677.26
626.43,2656.31
626.63,2630.76
626.83,2605.9
627.01,2584.09
627.19,2562.79
627.37,2542
627.53,2523.93
627.71,2504.05
627.87,2486.76
628.07,2465.65
628.27,2445.07
628.45,2427
628.61,2411.27
628.77,2395.86
628.95,2378.89
629.17,2358.66
629.33,2344.29
629.55,2324.99
629.71,2311.28
629.85,2299.5
630.05,2283.02
630.21,2270.12
630.43,2252.79
630.59,2240.47
630.77,2226.89
630.99,2210.69
631.15,2199.17
631.31,2187.87
631.51,2174.05
631.71,2160.55
631.87,2149.98
632.03,2139.61
632.23,2126.92
632.43,2114.53
632.57,2106.03
632.77,2094.13
632.95,2083.66
633.11,2074.54
633.31,2063.38
633.53,2051.41
633.69,2042.9
633.85,2034.55
634.01,2026.36
634.21,2016.34
634.39,2007.53
634.57,1998.91
634.77,1989.55
634.91,1983.13
635.09,1975.04
635.29,1966.26
635.49,1957.7
635.67,1950.17
635.83,1943.62
636.01,1936.41
636.17,1930.14
636.37,1922.48
636.57,1915.02
636.71,1909.91
636.89,1903.48
637.11,1895.83
637.23,1891.75
637.43,1885.1
637.61,1879.27
637.77,1874.21
637.99,1867.44
638.13,1863.24
638.33,1857.39
638.49,1852.83
638.71,1846.74
638.89,1841.91
639.09,1836.7
639.25,1832.65
639.43,1828.22
639.59,1824.39
639.79,1819.75
639.95,1816.15
640.17,1811.37
640.33,1808.01
640.47,1805.15
640.67,1801.2
640.89,1797.03
641.07,1793.76
641.25,1790.61
641.43,1787.58
641.57,1785.31
641.75,1782.5
641.93,1779.81
642.15,1776.69
642.31,1774.53
642.45,1772.72
642.67,1770.02
642.83,1768.17
643.01,1766.2
643.23,1763.96
643.39,1762.44
643.57,1760.84
643.73,1759.52
643.91,1758.15
644.09,1756.9
644.29,1755.65
644.49,1754.55
644.61,1753.96
644.83,1753.02
644.99,1752.45
645.13,1752.03
645.35,1751.52
645.53,1751.24
645.67,1751.11
645.87,1751.05
646.05,1751.13
646.29,1751.43
646.45,1751.76
646.65,1752.31
646.79,1752.79
646.93,1753.35
647.15,1754.39
647.31,1755.27
647.51,1756.52
647.67,1757.64
647.87,1759.19
648.05,1760.73
648.25,1762.61
648.45,1764.66
648.61,1766.43
648.79,1768.56
648.99,1771.1
649.15,1773.26
649.33,1775.84
649.51,1778.57
649.67,1781.13
649.85,1784.16
650.03,1787.35
650.23,1791.09
650.41,1794.63
650.59,1798.34
650.81,1803.11
650.99,1807.21
651.17,1811.49
651.33,1815.45
651.49,1819.56
651.67,1824.36
651.85,1829.36
652.01,1833.97
652.17,1838.74
652.37,1844.93
652.55,1850.73
652.77,1858.11
652.93,1863.69
653.09,1869.45
653.27,1876.15
653.45,1883.09
653.65,1891.09
653.85,1899.4
653.99,1905.41
654.19,1914.28
654.39,1923.48
654.55,1931.1
654.71,1938.94
654.87,1947.02
655.07,1957.46
655.29,1969.4
655.47,1979.53
655.61,1987.64
655.79,1998.38
655.97,2009.48
656.15,2020.95
656.33,2032.8
656.51,2045.05
656.71,2059.14
656.91,2073.75
657.07,2085.84
657.27,2101.45
657.45,2116.01
657.61,2129.36
657.79,2144.87
657.97,2160.91
658.15,2177.5
658.31,2192.73
658.51,2212.43
658.69,2230.82
658.87,2249.86
659.03,2267.35
659.21,2287.7
659.39,2308.79
659.57,2330.64
659.75,2353.31
659.95,2379.48
660.13,2403.98
660.31,2429.41
660.49,2455.82
660.65,2480.16
660.83,2508.57
661.01,2538.11
661.19,2568.85
661.37,2600.86
661.55,2634.2
661.73,2668.95
661.91,2705.2
662.09,2743.03
662.29,2787.04
662.47,2828.55
662.63,2867.04
662.83,2917.42
663.01,2965.06
663.19,3015.01
663.37,3067.46
663.55,3122.58
663.73,3180.55
663.91,3241.62
664.09,3306
664.27,3373.97
664.45,3445.82
664.63,3521.88
664.81,3602.52
664.99,3688.15
665.17,3779.22
665.35,3876.27
665.53,3979.86
665.71,4090.69
665.89,4209.5
666.07,4337.17
666.25,4474.72
666.43,4623.3
666.61,4784.28
666.79,4959.24
670.9929999999999,null
670.995,null
674.274,-4953.28
674.454,-4667.84
674.634,-4410.78
674.814,-4178.08
674.994,-3966.46
675.174,-3773.19
675.354,-3596.01
675.534,-3432.99
675.714,-3282.52
675.914,-3128.37
676.094,-3000.09
676.274,-2880.65
676.454,-2769.18
676.634,-2664.92
676.814,-2567.2
676.994,-2475.43
677.174,-2389.09
677.354,-2307.71
677.534,-2230.9
677.714,-2158.27
677.894,-2089.51
678.074,-2024.31
678.254,-1962.42
678.434,-1903.58
678.614,-1847.59
678.794,-1794.25
678.974,-1743.38
679.154,-1694.81
679.334,-1648.39
679.514,-1603.99
679.694,-1561.48
679.874,-1520.75
680.054,-1481.69
680.234,-1444.2
680.434,-1404.28
680.614,-1369.82
680.794,-1336.68
680.974,-1304.77
681.134,-1277.4
681.314,-1247.67
681.494,-1218.99
681.694,-1188.31
681.874,-1161.71
682.034,-1138.82
682.214,-1113.89
682.394,-1089.78
682.574,-1066.46
682.774,-1041.43
682.934,-1022.04
683.114,-1000.87
683.294,-980.36
683.474,-960.47
683.654,-941.18
683.834,-922.46
684.034,-902.31
684.194,-886.65
684.394,-867.64
684.594,-849.23
684.754,-834.91
684.914,-820.94
685.114,-803.96
685.294,-789.11
685.454,-776.24
685.634,-762.13
685.834,-746.88
686.014,-733.53
686.214,-719.1
686.394,-706.46
686.554,-695.49
686.714,-684.76
686.894,-672.97
687.054,-662.73
687.234,-651.48
687.414,-640.49
687.614,-628.59
687.794,-618.15
688.014,-605.71
688.154,-597.98
688.334,-588.24
688.534,-577.68
688.694,-569.42
688.914,-558.33
689.094,-549.48
689.234,-542.73
689.414,-534.22
689.614,-524.98
689.794,-516.85
689.954,-509.77
690.174,-500.25
690.334,-493.48
690.474,-487.66
690.694,-478.7
690.894,-470.75
691.034,-465.29
691.234,-457.64
691.374,-452.39
691.594,-444.3
691.734,-439.25
691.894,-433.58
692.114,-425.94
692.314,-419.15
692.534,-411.85
692.694,-406.65
692.834,-402.17
692.994,-397.13
693.214,-390.34
693.394,-384.9
693.574,-379.56
693.754,-374.32
693.954,-368.61
694.094,-364.68
694.274,-359.71
694.434,-355.37
694.634,-350.04
694.854,-344.3
694.994,-340.71
695.214,-335.17
695.434,-329.75
695.574,-326.36
695.754,-322.07
695.954,-317.39
696.154,-312.8
696.314,-309.19
696.434,-306.52
696.614,-302.57
696.814,-298.26
697.034,-293.61
697.194,-290.29
697.354,-287.02
697.574,-282.6
697.734,-279.44
697.894,-276.33
698.134,-271.75
698.274,-269.12
698.454,-265.79
698.574,-263.6
698.754,-260.36
698.974,-256.47
699.134,-253.69
699.334,-250.27
699.534,-246.91
699.734,-243.61
699.914,-240.69
700.054,-238.45
700.234,-235.61
700.454,-232.2
700.614,-229.76
700.834,-226.46
700.994,-224.1
701.194,-221.2
701.354,-218.91
701.514,-216.65
701.694,-214.15
701.834,-212.23
702.054,-209.26
702.234,-206.87
702.454,-204
702.554,-202.71
702.734,-200.42
702.974,-197.42
703.154,-195.21
703.214,-194.48
703.474,-191.36
703.654,-189.24
703.734,-188.31
703.974,-185.55
704.134,-183.74
704.374,-181.07
704.534,-179.32
704.714,-177.38
704.834,-176.1
705.054,-173.79
705.274,-171.52
705.494,-169.29
705.694,-167.3
705.814,-166.12
706.014,-164.18
706.234,-162.08
706.394,-160.58
706.534,-159.28
706.734,-157.45
706.934,-155.65
707.134,-153.88
707.314,-152.31
707.394,-151.62
707.674,-149.24
707.814,-148.07
708.014,-146.42
708.154,-145.28
708.394,-143.36
708.554,-142.1
708.734,-140.7
708.914,-139.32
709.114,-137.82
709.234,-136.92
709.434,-135.45
709.594,-134.29
709.834,-132.58
710.014,-131.32
710.134,-130.49
710.274,-129.53
710.474,-128.18
710.674,-126.85
710.914,-125.29
711.014,-124.64
711.214,-123.37
711.354,-122.49
711.514,-121.5
711.694,-120.4
711.954,-118.84
712.134,-117.78
712.254,-117.08
712.414,-116.16
712.674,-114.69
712.854,-113.69
713.074,-112.49
713.094,-112.39
713.294,-111.31
713.474,-110.36
713.694,-109.22
713.894,-108.2
714.154,-106.9
714.174,-106.81
714.354,-105.92
714.574,-104.86
714.794,-103.82
715.014,-102.8
715.154,-102.16
715.374,-101.17
715.514,-100.55
715.774,-99.42
715.954,-98.65
715.994,-98.49
716.154,-97.81
716.414,-96.74
716.674,-95.7
716.814,-95.14
716.994,-94.44
717.174,-93.75
717.354,-93.07
717.494,-92.55
717.674,-91.89
717.874,-91.17
718.094,-90.4
718.294,-89.7
718.314,-89.64
718.494,-89.02
718.774,-88.09
718.974,-87.44
719.194,-86.74
719.334,-86.3
719.454,-85.93
719.694,-85.2
719.754,-85.03
719.954,-84.43
720.154,-83.85
720.394,-83.17
720.494,-82.9
720.714,-82.29
720.934,-81.7
721.094,-81.28
721.354,-80.62
721.374,-80.56
721.574,-80.06
721.774,-79.57
722.034,-78.95
722.214,-78.53
722.274,-78.4
722.554,-77.76
722.754,-77.32
722.814,-77.2
723.054,-76.68
723.194,-76.39
723.454,-75.87
723.694,-75.39
723.734,-75.32
723.934,-74.93
724.194,-74.45
724.354,-74.16
724.594,-73.74
724.774,-73.43
724.814,-73.37
725.034,-73
725.194,-72.74
725.334,-72.52
725.654,-72.03
725.694,-71.98
725.914,-71.65
726.134,-71.34
726.294,-71.12
726.474,-70.88
726.674,-70.62
726.914,-70.32
726.954,-70.28
727.174,-70.01
727.454,-69.69
727.534,-69.61
727.674,-69.45
727.854,-69.26
728.194,-68.92
728.214,-68.91
728.494,-68.64
728.674,-68.48
728.754,-68.42
728.934,-68.26
729.134,-68.1
729.454,-67.86
729.534,-67.81
729.754,-67.65
729.974,-67.51
730.034,-67.48
730.274,-67.33
730.434,-67.24
730.714,-67.1
730.874,-67.02
730.914,-67.01
731.174,-66.89
731.274,-66.86
731.494,-66.77
731.734,-66.69
731.834,-66.67
731.994,-66.62
732.274,-66.55
732.474,-66.52
732.534,-66.5
732.814,-66.46
732.894,-66.46
733.134,-66.43
733.314,-66.43
733.434,-66.42
733.734,-66.42
733.794,-66.43
734.054,-66.44
734.314,-66.47
734.334,-66.48
734.514,-66.5
734.794,-66.55
734.934,-66.59
735.134,-66.63
735.314,-66.69
735.474,-66.73
735.654,-66.79
735.874,-66.87
735.954,-66.91
736.214,-67.01
736.394,-67.1
736.494,-67.14
736.814,-67.3
736.854,-67.33
737.154,-67.49
737.274,-67.57
737.434,-67.66
737.694,-67.83
737.814,-67.92
738.054,-68.08
738.114,-68.13
738.374,-68.32
738.614,-68.51
738.654,-68.55
738.914,-68.76
739.174,-68.99
739.254,-69.07
739.394,-69.19
739.554,-69.34
739.854,-69.64
740.074,-69.86
740.154,-69.95
740.314,-70.11
740.534,-70.35
740.714,-70.55
740.974,-70.85
740.994,-70.88
741.194,-71.11
741.374,-71.33
741.654,-71.68
741.734,-71.79
741.894,-71.99
742.194,-72.39
742.414,-72.69
742.494,-72.81
742.754,-73.17
742.954,-73.47
742.974,-73.49
743.314,-74
743.374,-74.1
743.574,-74.4
743.814,-74.78
743.994,-75.07
744.214,-75.44
744.274,-75.53
744.534,-75.97
744.634,-76.15
744.794,-76.42
744.994,-76.77
745.294,-77.31
745.334,-77.39
745.554,-77.79
745.794,-78.24
745.894,-78.44
746.034,-78.7
746.234,-79.09
746.554,-79.73
746.674,-79.97
746.874,-80.38
747.014,-80.67
747.134,-80.93
747.434,-81.56
747.614,-81.95
747.674,-82.09
747.954,-82.7
748.154,-83.15
748.194,-83.25
748.434,-83.79
748.674,-84.35
748.794,-84.64
748.974,-85.06
749.194,-85.59
749.374,-86.03
749.594,-86.58
749.794,-87.08
749.894,-87.33
750.074,-87.79
750.294,-88.36
750.394,-88.63
750.594,-89.15
750.774,-89.63
751.014,-90.28
751.074,-90.45
751.294,-91.05
751.534,-91.72
751.774,-92.4
751.834,-92.58
752.014,-93.09
752.254,-93.79
752.434,-94.33
752.514,-94.56
752.814,-95.46
752.874,-95.65
753.134,-96.44
753.334,-97.06
753.414,-97.32
753.594,-97.88
753.814,-98.58
754.074,-99.42
754.154,-99.69
754.354,-100.34
754.574,-101.07
754.714,-101.55
754.894,-102.15
755.194,-103.18
755.354,-103.74
755.554,-104.44
755.634,-104.73
755.794,-105.29
755.994,-106.01
756.154,-106.59
756.394,-107.47
756.634,-108.36
756.794,-108.96
756.834,-109.12
757.034,-109.87
757.214,-110.56
757.454,-111.49
757.554,-111.89
757.734,-112.59
758.074,-113.95
758.174,-114.35
758.434,-115.41
758.454,-115.5
758.674,-116.4
758.894,-117.32
758.994,-117.74
759.274,-118.93
759.474,-119.79
759.594,-120.31
759.854,-121.45
759.974,-121.98
760.234,-123.14
760.314,-123.51
760.554,-124.59
760.774,-125.6
760.794,-125.7
761.094,-127.09
761.154,-127.38
761.474,-128.89
761.514,-129.09
761.814,-130.53
761.994,-131.41
762.114,-132
762.354,-133.2
762.574,-134.3
762.734,-135.11
762.914,-136.03
763.094,-136.96
763.154,-137.28
763.314,-138.11
763.574,-139.48
763.754,-140.44
763.914,-141.3
764.054,-142.06
764.374,-143.82
764.494,-144.48
764.714,-145.71
764.914,-146.84
764.974,-147.19
765.134,-148.1
765.394,-149.6
765.594,-150.77
765.794,-151.95
765.954,-152.91
766.174,-154.23
766.334,-155.2
766.494,-156.18
766.714,-157.54
766.874,-158.54
767.014,-159.42
767.214,-160.69
767.434,-162.1
767.614,-163.27
767.754,-164.18
767.974,-165.63
767.994,-165.77
768.254,-167.5
768.414,-168.58
768.634,-170.08
768.814,-171.32
768.974,-172.44
769.234,-174.26
769.354,-175.11
769.494,-176.11
769.754,-177.99
769.834,-178.57
770.094,-180.48
770.194,-181.22
770.494,-183.47
770.634,-184.53
770.834,-186.06
771.014,-187.45
771.054,-187.77
771.294,-189.64
771.414,-190.59
771.754,-193.31
771.874,-194.28
772.054,-195.75
772.254,-197.4
772.434,-198.9
772.534,-199.74
772.834,-202.29
772.894,-202.8
773.114,-204.7
773.354,-206.8
773.554,-208.57
773.694,-209.82
773.814,-210.9
774.034,-212.9
774.154,-214
774.354,-215.85
774.574,-217.91
774.814,-220.19
774.894,-220.95
775.094,-222.88
775.294,-224.83
775.434,-226.21
775.714,-229
775.834,-230.21
776.014,-232.04
776.254,-234.51
776.354,-235.55
776.594,-238.07
776.754,-239.77
776.934,-241.7
777.134,-243.87
777.334,-246.07
777.494,-247.84
777.674,-249.86
777.834,-251.67
777.974,-253.27
778.194,-255.81
778.354,-257.68
778.554,-260.04
778.774,-262.68
778.874,-263.88
779.114,-266.81
779.254,-268.54
779.494,-271.54
779.634,-273.31
779.814,-275.61
779.894,-276.64
780.114,-279.5
780.334,-282.4
780.454,-284
780.734,-287.78
780.914,-290.25
781.014,-291.63
781.174,-293.86
781.354,-296.4
781.594,-299.83
781.774,-302.44
781.994,-305.67
782.174,-308.35
782.334,-310.76
782.474,-312.89
782.594,-314.73
782.834,-318.46
782.994,-320.98
783.214,-324.49
783.454,-328.38
783.614,-331.01
783.774,-333.67
783.954,-336.7
784.154,-340.11
784.354,-343.57
784.474,-345.67
784.674,-349.21
784.834,-352.08
785.014,-355.35
785.194,-358.66
785.414,-362.77
785.594,-366.18
785.774,-369.64
785.914,-372.36
786.114,-376.3
786.314,-380.3
786.514,-384.36
786.694,-388.07
786.854,-391.42
787.034,-395.22
787.174,-398.22
787.334,-401.69
787.534,-406.09
787.714,-410.11
787.894,-414.19
788.074,-418.33
788.274,-423
788.474,-427.75
788.674,-432.58
788.834,-436.5
789.034,-441.48
789.214,-446.03
789.354,-449.62
789.534,-454.3
789.674,-457.99
789.794,-461.19
790.034,-467.69
790.214,-472.66
790.374,-477.14
790.594,-483.41
790.794,-489.22
790.974,-494.54
791.154,-499.95
791.354,-506.07
791.494,-510.42
791.674,-516.1
791.854,-521.88
792.014,-527.1
792.194,-533.07
792.394,-539.83
792.534,-544.64
792.734,-551.63
792.934,-558.76
793.094,-564.57
793.274,-571.22
793.494,-579.52
793.674,-586.45
793.874,-594.31
794.014,-599.91
794.194,-607.23
794.374,-614.7
794.534,-621.46
794.714,-629.21
794.894,-637.12
795.074,-645.19
795.254,-653.42
795.454,-662.77
795.654,-672.34
795.814,-680.16
795.994,-689.13
796.154,-697.27
796.374,-708.72
796.554,-718.32
796.754,-729.24
796.894,-737.05
797.114,-749.6
797.314,-761.32
797.494,-772.13
797.614,-779.48
797.794,-790.73
797.954,-800.95
798.134,-812.72
798.334,-826.14
798.494,-837.15
798.674,-849.83
798.854,-862.84
799.034,-876.19
799.194,-888.35
799.374,-902.38
799.574,-918.42
799.754,-933.27
799.934,-948.54
800.114,-964.24
800.314,-982.22
800.474,-997.02
800.654,-1014.14
800.834,-1031.77
801.034,-1052
801.194,-1068.68
801.374,-1088
801.574,-1110.2
801.774,-1133.2
801.934,-1152.21
802.114,-1174.28
802.294,-1197.1
802.454,-1218.05
802.634,-1242.41
802.814,-1267.65
803.014,-1296.77
803.194,-1324.02
803.374,-1352.31
803.554,-1381.7
803.734,-1412.25
803.894,-1440.44
804.074,-1473.39
804.274,-1511.63
804.454,-1547.61
804.634,-1585.17
804.814,-1624.42
804.994,-1665.48
805.174,-1708.47
805.354,-1753.53
805.534,-1800.82
805.714,-1850.51
805.894,-1902.78
806.074,-1957.83
806.254,-2015.91
806.434,-2077.26
806.614,-2142.17
806.794,-2210.96
806.974,-2283.98
807.154,-2361.64
807.334,-2444.4
807.514,-2532.77
807.694,-2627.35
807.874,-2728.8
808.054,-2837.92
808.234,-2955.61
808.414,-3082.91
808.594,-3221.04
808.774,-3371.47
808.954,-3535.9
809.134,-3716.38
809.314,-3915.38
809.494,-4135.92
809.674,-4381.68
809.854,-4657.26
810.034,-4968.42
812.822,null
812.825,null
815.882,4834.53
816.062,4574.98
816.242,4342.74
816.422,4133.72
816.602,3944.61
816.782,3772.68
816.962,3615.71
817.142,3471.81
817.322,3339.43
817.502,3217.22
817.682,3104.07
817.862,2999
818.062,2890.72
818.242,2800.11
818.422,2715.31
818.602,2635.8
818.782,2561.09
818.962,2490.76
819.142,2424.43
819.322,2361.78
819.502,2302.5
819.682,2246.34
819.862,2193.04
820.042,2142.41
820.222,2094.23
820.402,2048.35
820.582,2004.59
820.762,1962.82
820.942,1922.89
821.122,1884.7
821.302,1848.13
821.482,1813.08
821.662,1779.46
821.842,1747.18
822.022,1716.16
822.222,1683.09
822.382,1657.63
822.562,1629.99
822.742,1603.35
822.922,1577.66
823.102,1552.86
823.282,1528.92
823.482,1503.27
823.662,1481
823.842,1459.45
824.022,1438.59
824.202,1418.39
824.362,1400.97
824.522,1384.02
824.702,1365.5
824.882,1347.53
825.062,1330.09
825.242,1313.16
825.442,1294.91
825.622,1278.97
825.822,1261.78
826.002,1246.75
826.182,1232.13
826.342,1219.46
826.522,1205.56
826.702,1192.02
826.882,1178.83
827.042,1167.38
827.242,1153.43
827.422,1141.2
827.622,1127.96
827.782,1117.62
827.962,1106.25
828.142,1095.15
828.302,1085.5
828.502,1073.71
828.702,1062.22
828.882,1052.12
829.062,1042.25
829.242,1032.59
829.402,1024.18
829.622,1012.88
829.822,1002.86
829.942,996.96
830.142,987.31
830.342,977.88
830.502,970.49
830.682,962.33
830.902,952.58
831.042,946.5
831.242,937.97
831.402,931.28
831.582,923.89
831.762,916.64
831.922,910.31
832.162,901.01
832.322,894.94
832.442,890.45
832.662,882.36
832.862,875.16
833.042,868.8
833.262,861.18
833.422,855.74
833.602,849.72
833.742,845.11
833.942,838.63
834.142,832.27
834.282,827.89
834.462,822.34
834.662,816.28
834.782,812.7
835.002,806.23
835.202,800.46
835.362,795.92
835.522,791.44
835.722,785.93
835.882,781.59
836.082,776.25
836.282,771
836.482,765.84
836.622,762.28
836.802,757.76
836.982,753.31
837.142,749.41
837.302,745.56
837.442,742.23
837.702,736.15
837.862,732.47
837.982,729.74
838.222,724.36
838.402,720.39
838.542,717.34
838.742,713.04
838.882,710.07
839.062,706.3
839.342,700.53
839.502,697.29
839.682,693.69
839.842,690.53
840.042,686.63
840.222,683.17
840.362,680.51
840.542,677.13
840.782,672.69
840.962,669.41
841.142,666.17
841.342,662.62
841.542,659.12
841.702,656.35
841.762,655.32
841.962,651.92
842.182,648.23
842.422,644.27
842.602,641.34
842.762,638.77
842.862,637.17
843.062,634.01
843.342,629.66
843.482,627.51
843.642,625.08
843.862,621.78
844.062,618.82
844.202,616.77
844.362,614.45
844.462,613.01
844.662,610.16
844.942,606.23
845.082,604.29
845.262,601.82
845.502,598.57
845.662,596.43
845.822,594.31
845.962,592.47
846.162,589.87
846.362,587.3
846.502,585.52
846.602,584.26
846.862,581.01
847.002,579.28
847.242,576.35
847.382,574.66
847.622,571.79
847.822,569.43
848.002,567.33
848.122,565.94
848.362,563.19
848.482,561.83
848.682,559.58
848.842,557.8
849.102,554.94
849.262,553.2
849.442,551.26
849.602,549.55
849.702,548.49
849.982,545.55
850.142,543.89
850.322,542.04
850.482,540.41
850.562,539.6
850.782,537.39
851.022,535.01
851.142,533.83
851.342,531.88
851.542,529.95
851.662,528.8
851.842,527.09
852.042,525.21
852.262,523.16
852.522,520.77
852.602,520.04
852.742,518.77
852.922,517.15
853.142,515.19
853.262,514.13
853.542,511.68
853.762,509.78
853.882,508.75
854.122,506.71
854.322,505.03
854.502,503.53
854.522,503.37
854.742,501.55
855.002,499.43
855.102,498.62
855.402,496.22
855.562,494.95
855.722,493.69
855.922,492.13
856.002,491.51
856.262,489.51
856.442,488.14
856.622,486.78
856.762,485.73
856.942,484.39
857.182,482.62
857.242,482.19
857.422,480.87
857.642,479.28
857.922,477.28
858.042,476.43
858.282,474.75
858.442,473.63
858.482,473.36
858.662,472.11
858.902,470.47
859.162,468.71
859.302,467.77
859.422,466.97
859.662,465.38
859.802,464.46
860.082,462.64
860.162,462.12
860.402,460.58
860.602,459.31
860.722,458.55
860.982,456.92
861.162,455.8
861.202,455.56
861.422,454.2
861.602,453.1
861.782,452.01
862.062,450.33
862.122,449.98
862.262,449.14
862.542,447.49
862.722,446.44
862.822,445.86
863.002,444.82
863.222,443.56
863.462,442.2
863.602,441.41
863.802,440.29
863.982,439.29
864.222,437.97
864.342,437.31
864.502,436.44
864.722,435.25
864.942,434.08
865.102,433.22
865.162,432.91
865.322,432.06
865.562,430.8
865.822,429.45
865.882,429.15
866.042,428.32
866.342,426.79
866.522,425.89
866.582,425.58
866.862,424.18
867.082,423.09
867.122,422.9
867.302,422.01
867.542,420.84
867.722,419.97
867.922,419.01
868.022,418.54
868.362,416.92
868.402,416.74
868.582,415.89
868.822,414.77
868.982,414.04
869.202,413.02
869.362,412.29
869.522,411.57
869.762,410.49
869.982,409.5
870.022,409.33
870.282,408.17
870.402,407.65
870.622,406.68
870.762,406.08
870.922,405.38
871.122,404.52
871.262,403.93
871.602,402.48
871.642,402.32
871.802,401.64
872.102,400.39
872.162,400.15
872.422,399.07
872.642,398.17
872.802,397.52
873.042,396.56
873.062,396.47
873.342,395.35
873.422,395.04
873.622,394.24
873.902,393.14
874.022,392.68
874.182,392.05
874.402,391.2
874.642,390.28
874.702,390.06
874.942,389.14
875.042,388.77
875.242,388.01
875.542,386.89
875.582,386.75
875.902,385.56
875.942,385.42
876.162,384.61
876.382,383.81
876.562,383.16
876.662,382.81
876.962,381.73
877.162,381.03
877.202,380.88
877.502,379.83
877.722,379.06
877.802,378.79
878.002,378.09
878.182,377.48
878.282,377.13
878.502,376.38
878.762,375.5
878.842,375.24
879.022,374.63
879.322,373.63
879.382,373.44
879.622,372.64
879.762,372.19
879.922,371.66
880.202,370.75
880.282,370.5
880.482,369.85
880.682,369.21
880.842,368.71
881.102,367.88
881.162,367.7
881.402,366.94
881.562,366.45
881.782,365.76
881.902,365.4
882.062,364.9
882.242,364.35
882.462,363.69
882.602,363.26
882.902,362.36
883.122,361.7
883.182,361.53
883.402,360.87
883.602,360.29
883.722,359.93
883.862,359.52
884.082,358.89
884.342,358.13
884.422,357.91
884.702,357.1
884.782,356.88
884.942,356.42
885.282,355.46
885.342,355.3
885.522,354.79
885.802,354.02
885.882,353.79
886.162,353.02
886.202,352.92
886.422,352.31
886.602,351.83
886.762,351.39
886.962,350.86
887.142,350.37
887.382,349.73
887.582,349.21
887.662,348.99
887.982,348.15
888.062,347.95
888.182,347.63
888.502,346.8
888.622,346.5
888.782,346.08
888.942,345.68
889.222,344.96
889.402,344.51
889.502,344.26
889.762,343.61
889.902,343.26
890.142,342.66
890.262,342.37
890.502,341.77
890.522,341.73
890.842,340.94
890.882,340.85
891.102,340.31
891.242,339.98
891.422,339.54
891.622,339.07
891.842,338.54
892.082,337.97
892.162,337.79
892.342,337.36
892.542,336.9
892.762,336.38
892.882,336.11
893.082,335.64
893.242,335.28
893.422,334.86
893.742,334.14
893.862,333.86
893.962,333.64
894.222,333.05
894.302,332.88
894.522,332.38
894.702,331.99
894.942,331.45
895.142,331.02
895.302,330.66
895.402,330.45
895.642,329.92
895.762,329.67
896.022,329.1
896.142,328.85
896.382,328.33
896.522,328.04
896.702,327.65
896.862,327.32
897.082,326.85
897.182,326.65
897.422,326.14
897.662,325.65
897.842,325.27
898.002,324.95
898.222,324.49
898.422,324.09
898.482,323.96
898.782,323.36
898.922,323.07
899.142,322.63
899.322,322.27
899.462,321.99
899.522,321.88
899.862,321.2
899.942,321.05
900.182,320.57
900.242,320.46
900.562,319.83
900.602,319.76
900.862,319.25
901.022,318.95
901.122,318.75
901.262,318.49
901.462,318.1
901.582,317.88
901.742,317.57
901.942,317.2
902.102,316.89
902.342,316.45
902.402,316.33
902.562,316.04
902.762,315.66
902.902,315.41
903.022,315.18
903.222,314.82
903.442,314.41
903.502,314.31
903.662,314.01
903.882,313.62
903.982,313.43
904.142,313.15
904.322,312.82
904.522,312.47
904.742,312.07
904.922,311.76
904.962,311.68
905.102,311.44
905.282,311.12
905.422,310.88
905.602,310.56
905.882,310.07
905.962,309.94
906.142,309.62
906.222,309.49
906.462,309.07
906.542,308.94
906.702,308.66
906.942,308.26
907.102,307.98
907.202,307.82
907.422,307.44
907.522,307.28
907.702,306.97
907.862,306.71
908.002,306.47
908.182,306.18
908.322,305.94
908.522,305.62
908.742,305.25
908.802,305.16
908.962,304.89
909.102,304.67
909.282,304.37
909.442,304.12
909.642,303.79
909.802,303.54
909.922,303.34
910.122,303.03
910.242,302.83
910.462,302.49
910.602,302.26
910.702,302.11
910.862,301.85
911.142,301.42
911.182,301.35
911.482,300.89
911.522,300.82
911.702,300.55
911.962,300.14
912.122,299.9
912.242,299.72
912.302,299.62
912.602,299.17
912.682,299.04
912.922,298.68
912.982,298.59
913.142,298.35
913.262,298.17
913.502,297.81
913.642,297.6
913.882,297.24
913.902,297.22
914.202,296.77
914.322,296.6
914.522,296.3
914.642,296.13
914.842,295.83
914.882,295.78
915.062,295.51
915.282,295.2
915.442,294.96
915.622,294.71
915.762,294.5
915.922,294.28
916.042,294.1
916.182,293.91
916.402,293.59
916.542,293.4
916.642,293.25
916.862,292.95
916.962,292.8
917.162,292.53
917.342,292.27
917.442,292.14
917.702,291.77
917.802,291.64
917.942,291.44
918.122,291.2
918.262,291
918.422,290.79
918.562,290.59
918.782,290.3
918.902,290.13
919.122,289.84
919.242,289.67
919.382,289.49
919.542,289.27
919.682,289.09
919.842,288.87
919.982,288.69
920.262,288.31
920.322,288.24
920.482,288.02
920.702,287.74
920.802,287.6
920.962,287.4
921.102,287.21
921.262,287.01
921.502,286.69
921.602,286.57
921.742,286.38
921.982,286.08
922.062,285.97
922.342,285.62
922.422,285.51
922.602,285.29
922.722,285.13
922.942,284.86
923.022,284.75
923.202,284.53
923.342,284.35
923.522,284.13
923.662,283.95
923.942,283.6
923.982,283.56
924.282,283.18
924.362,283.09
924.542,282.86
924.622,282.77
924.902,282.42
924.982,282.33
925.222,282.03
925.262,281.99
925.462,281.74
925.642,281.53
925.802,281.33
925.942,281.17
926.102,280.97
926.302,280.74
926.462,280.54
926.562,280.43
926.842,280.09
926.882,280.05
927.062,279.83
927.222,279.65
927.362,279.48
927.522,279.3
927.662,279.13
927.822,278.95
928.022,278.71
928.262,278.44
928.342,278.34
928.462,278.21
928.742,277.88
928.862,277.75
928.942,277.65
929.142,277.43
929.382,277.15
929.442,277.09
929.682,276.81
929.742,276.75
929.922,276.54
930.082,276.37
930.262,276.16
930.502,275.9
930.602,275.78
930.762,275.61
930.882,275.47
931.042,275.3
931.262,275.05
931.342,274.97
931.562,274.72
931.662,274.62
931.902,274.35
931.982,274.27
932.242,273.98
932.342,273.88
932.482,273.72
932.722,273.47
932.882,273.29
933.002,273.17
933.162,272.99
933.282,272.87
933.462,272.67
933.602,272.53
933.802,272.31
933.942,272.17
934.162,271.93
934.342,271.75
934.382,271.7
934.542,271.54
934.802,271.26
935.002,271.06
935.042,271.01
935.302,270.75
935.342,270.7
935.642,270.4
935.662,270.37
935.962,270.07
936.042,269.98
936.262,269.76
936.442,269.58
936.582,269.44
936.622,269.39
936.782,269.23
936.982,269.03
937.142,268.87
937.402,268.61
937.482,268.53
937.662,268.35
937.742,268.27
938.002,268.01
938.162,267.85
938.362,267.65
938.422,267.6
938.662,267.36
938.842,267.18
938.982,267.04
939.022,267.01
939.322,266.71
939.402,266.64
939.642,266.4
939.742,266.31
939.962,266.09
940.022,266.04
940.262,265.8
940.302,265.77
940.502,265.57
940.742,265.35
940.922,265.17
940.962,265.14
941.142,264.96
941.342,264.78
941.502,264.62
941.702,264.44
941.842,264.3
942.022,264.14
942.142,264.02
942.322,263.86
942.442,263.74
942.602,263.6
942.722,263.48
942.882,263.34
943.122,263.11
943.262,262.99
943.362,262.89
943.502,262.77
943.722,262.56
943.862,262.44
944.062,262.25
944.202,262.13
944.382,261.96
944.502,261.86
944.702,261.67
944.822,261.57
945.002,261.4
945.102,261.32
945.282,261.15
945.482,260.98
945.642,260.83
945.842,260.66
945.922,260.58
946.102,260.43
946.262,260.28
946.442,260.13
946.582,260
946.842,259.77
946.862,259.76
947.062,259.58
947.242,259.43
947.382,259.3
947.542,259.17
947.682,259.04
947.842,258.91
948.042,258.73
948.202,258.6
948.402,258.42
948.542,258.31
948.742,258.13
948.822,258.07
948.942,257.96
949.222,257.73
949.402,257.57
949.422,257.56
949.722,257.3
949.742,257.29
949.902,257.15
950.102,256.99
950.262,256.85
950.402,256.74
950.562,256.6
950.702,256.49
950.862,256.35
951.102,256.16
951.202,256.07
951.442,255.88
951.542,255.79
951.722,255.65
951.882,255.51
952.002,255.42
952.262,255.2
952.322,255.16
952.522,254.99
952.642,254.9
952.782,254.78
953.002,254.61
953.142,254.49
953.302,254.37
953.502,254.2
953.702,254.05
953.742,254.01
953.902,253.89
954.082,253.74
954.242,253.62
954.422,253.47
954.622,253.32
954.802,253.17
954.902,253.1
955.082,252.95
955.182,252.88
955.402,252.7
955.502,252.63
955.722,252.45
955.902,252.32
955.982,252.25
956.262,252.04
956.342,251.97
956.562,251.81
956.642,251.74
956.862,251.58
956.942,251.51
957.202,251.32
957.282,251.25
957.422,251.15
957.702,250.94
957.782,250.87
957.922,250.77
958.062,250.66
958.242,250.53
958.382,250.42
958.562,250.29
958.702,250.18
958.882,250.05
959.102,249.88
959.262,249.77
959.362,249.69
959.502,249.59
959.762,249.39
959.842,249.34
960.102,249.14
960.182,249.09
960.442,248.89
960.482,248.87
960.702,248.7
960.782,248.65
961.062,248.44
961.182,248.36
961.322,248.25
961.442,248.17
961.682,247.99
961.762,247.94
962.042,247.73
962.082,247.71
962.322,247.53
962.402,247.48
962.602,247.33
962.782,247.21
962.982,247.06
963.022,247.04
963.222,246.89
963.362,246.8
963.562,246.65
963.702,246.56
963.902,246.41
964.042,246.32
964.202,246.2
964.402,246.07
964.462,246.02
964.702,245.86
964.822,245.77
964.962,245.68
965.182,245.52
965.382,245.39
965.442,245.34
965.702,245.17
965.762,245.12
966.022,244.95
966.142,244.86
966.242,244.8
966.422,244.67
966.682,244.5
966.702,244.48
966.982,244.29
967.022,244.27
967.202,244.14
967.362,244.04
967.502,243.94
967.662,243.84
967.842,243.71
968.002,243.61
968.142,243.51
968.302,243.41
968.502,243.27
968.682,243.16
968.822,243.06
968.982,242.96
969.122,242.86
969.302,242.75
969.442,242.65
969.622,242.54
969.762,242.44
969.942,242.33
970.082,242.23
970.342,242.07
970.482,241.97
970.542,241.94
970.822,241.75
970.882,241.72
971.162,241.53
971.222,241.5
971.442,241.35
971.502,241.32
971.662,241.21
971.862,241.09
972.022,240.98
972.142,240.91
972.382,240.75
972.522,240.67
972.682,240.56
972.822,240.48
972.982,240.37
973.122,240.29
973.302,240.17
973.442,240.09
973.622,239.97
973.842,239.83
973.922,239.79
974.102,239.67
974.242,239.59
974.422,239.47
974.662,239.33
974.762,239.26
975.002,239.12
975.022,239.1
975.262,238.96
975.362,238.89
975.522,238.8
975.802,238.62
975.882,238.58
975.982,238.51
976.142,238.42
976.442,238.23
976.522,238.19
976.722,238.06
976.802,238.02
977.022,237.88
977.102,237.84
977.322,237.7
977.502,237.6
977.622,237.52
977.802,237.42
977.922,237.34
978.102,237.24
978.242,237.15
978.422,237.05
978.562,236.96
978.742,236.86
978.982,236.71
979.082,236.66
979.222,236.57
979.422,236.46
979.562,236.37
979.662,236.32
979.902,236.17
980.002,236.12
980.142,236.03
980.382,235.9
980.522,235.81
980.622,235.76
980.782,235.66
981.002,235.54
981.162,235.44
981.262,235.39
981.422,235.29
981.682,235.15
981.822,235.06
981.942,235
982.122,234.89
982.242,234.83
982.402,234.73
982.682,234.58
982.702,234.56
982.982,234.41
983.022,234.38
983.282,234.24
983.462,234.13
983.622,234.05
983.662,234.02
983.962,233.85
984.122,233.77
984.142,233.75
984.442,233.59
984.482,233.56
984.642,233.48
984.842,233.36
985.022,233.27
985.222,233.15
985.402,233.06
985.422,233.04
985.602,232.95
985.822,232.82
986.022,232.72
986.062,232.69
986.222,232.61
986.462,232.47
986.682,232.36
986.702,232.34
986.902,232.24
987.162,232.1
987.182,232.08
987.402,231.97
987.502,231.91
987.662,231.83
987.942,231.67
988.122,231.58
988.222,231.52
988.442,231.41
988.522,231.36
988.762,231.24
988.842,231.19
989.082,231.07
989.162,231.02
989.402,230.9
989.502,230.84
989.722,230.73
989.862,230.66
989.902,230.63
990.202,230.48
990.282,230.43
990.502,230.32
990.682,230.23
990.722,230.2
991.002,230.06
991.162,229.98
991.222,229.94
991.482,229.81
991.642,229.73
991.782,229.66
991.822,229.63
992.002,229.54
992.262,229.41
992.442,229.32
992.542,229.26
992.762,229.15
992.902,229.08
992.982,229.04
993.142,228.96
993.402,228.83
993.562,228.75
993.622,228.71
993.762,228.64
994.002,228.52
994.182,228.43
994.262,228.39
994.502,228.27
994.682,228.18
994.762,228.14
995.002,228.02
995.022,228.01
995.262,227.89
995.402,227.82
995.642,227.7
995.762,227.64
995.902,227.57
996.122,227.46
996.162,227.45
996.402,227.33
996.482,227.29
996.762,227.15
996.902,227.08
996.982,227.04
997.242,226.91
997.282,226.9
997.502,226.79
997.662,226.71
997.882,226.6
998.022,226.53
998.062,226.52
998.262,226.42
998.522,226.29
998.642,226.24
998.722,226.2
999.002,226.06
999.142,225.99
999.182,225.98
999.482,225.83
999.602,225.77
999.662,225.75
999.962,225.6
1000.042,225.57
1000.282,225.45
1000.422,225.38
1000.462,225.37
1000.762,225.22
1000.802,225.21
1001.082,225.07
1001.162,225.04
1001.402,224.92
1001.482,224.89
1001.722,224.77
1001.802,224.74
1002.042,224.62
1002.102,224.6
1002.362,224.47
1002.402,224.46
1002.662,224.33
1002.702,224.32
1002.922,224.21
1003.022,224.17
1003.182,224.09
1003.462,223.97
1003.642,223.88
1003.702,223.86
1003.942,223.74
1003.982,223.73
1004.162,223.64
1004.422,223.53
1004.602,223.44
1004.642,223.43
1004.842,223.33
1005.082,223.23
1005.242,223.15
1005.302,223.13
1005.482,223.04
1005.702,222.95
1005.882,222.86
1005.902,222.86
1006.082,222.77
1006.302,222.68
1006.462,222.6
1006.682,222.51
1006.842,222.43
1006.862,222.43
1007.022,222.35
1007.222,222.27
1007.382,222.19
1007.582,222.11
1007.742,222.03
1007.922,221.96
1008.082,221.88
1008.262,221.81
1008.422,221.73
1008.462,221.72
1008.742,221.59
1008.782,221.58
1009.062,221.45
1009.102,221.44
1009.382,221.31
1009.422,221.3
1009.682,221.18
1009.862,221.11
1009.982,221.05
1010.162,220.98
1010.282,220.92
1010.442,220.86
1010.582,220.79
1010.742,220.73
1010.862,220.67
1011.022,220.61
1011.282,220.49
1011.442,220.43
1011.562,220.37
1011.722,220.31
1011.822,220.26
1011.982,220.2
1012.222,220.09
1012.382,220.03
1012.502,219.97
1012.642,219.92
1012.882,219.81
1013.022,219.76
1013.142,219.7
1013.282,219.65
1013.522,219.54
1013.662,219.49
1013.762,219.44
1013.902,219.39
1014.122,219.29
1014.262,219.24
1014.482,219.14
1014.622,219.09
1014.722,219.04
1014.862,218.99
1015.082,218.89
1015.202,218.85
1015.422,218.75
1015.562,218.7
1015.762,218.61
1015.902,218.56
1015.982,218.52
1016.222,218.43
1016.322,218.38
1016.462,218.33
1016.762,218.2
1016.782,218.2
1017.082,218.07
1017.102,218.07
1017.302,217.98
1017.422,217.94
1017.722,217.81
1017.742,217.81
1017.922,217.73
1018.142,217.65
1018.222,217.61
1018.462,217.52
1018.542,217.48
1018.762,217.4
1018.942,217.32
1019.062,217.28
1019.242,217.2
1019.362,217.16
1019.542,217.08
1019.742,217.01
1019.822,216.97
1020.042,216.89
1020.222,216.81
1020.322,216.78
1020.502,216.7
1020.702,216.63
1020.782,216.59
1020.982,216.52
1021.162,216.44
1021.262,216.41
1021.442,216.33
1021.722,216.23
1021.802,216.19
1021.902,216.16
1022.082,216.08
1022.362,215.98
1022.442,215.94
1022.542,215.91
1022.702,215.84
1022.982,215.74
1023.062,215.7
1023.242,215.64
1023.402,215.57
1023.502,215.54
1023.662,215.47
1023.862,215.4
1024.002,215.34
1024.202,215.27
1024.342,215.21
1024.462,215.17
1024.682,215.08
1024.782,215.05
1024.942,214.98
1025.122,214.92
1025.262,214.86
1025.442,214.8
1025.602,214.73
1025.782,214.67
1025.922,214.61
1026.102,214.55
1026.242,214.49
1026.422,214.43
1026.562,214.37
1026.742,214.31
1026.882,214.25
1027.062,214.19
1027.202,214.13
1027.382,214.07
1027.522,214.01
1027.682,213.96
1027.822,213.9
1028.002,213.84
1028.142,213.78
1028.302,213.73
1028.522,213.64
1028.682,213.59
1028.822,213.53
1028.982,213.48
1029.122,213.42
1029.362,213.34
1029.422,213.31
1029.582,213.26
1029.802,213.17
1029.962,213.12
1030.162,213.04
1030.322,212.99
1030.382,212.96
1030.542,212.91
1030.822,212.8
1030.902,212.78
1031.042,212.72
1031.262,212.65
1031.402,212.59
1031.622,212.52
1031.682,212.49
1031.842,212.44
1032.042,212.36
1032.262,212.29
1032.322,212.26
1032.542,212.19
1032.742,212.11
1032.822,212.09
1033.022,212.01
1033.162,211.97
1033.362,211.89
1033.442,211.87
1033.702,211.77
1033.782,211.75
1033.902,211.7
1034.122,211.63
1034.242,211.58
1034.462,211.51
1034.582,211.46
1034.802,211.39
1034.922,211.34
1035.062,211.3
1035.182,211.25
1035.462,211.16
1035.582,211.11
1035.722,211.07
1035.842,211.02
1035.982,210.98
1036.162,210.91
1036.442,210.82
1036.562,210.77
1036.642,210.75
1036.822,210.68
1036.962,210.64
1037.142,210.57
1037.282,210.53
1037.462,210.46
1037.602,210.42
1037.782,210.35
1037.922,210.31
1038.162,210.22
1038.242,210.2
1038.402,210.14
1038.602,210.08
1038.722,210.03
1038.862,209.99
1039.162,209.89
1039.222,209.86
1039.362,209.82
1039.522,209.76
1039.662,209.72
1039.822,209.66
1040.022,209.6
1040.142,209.55
1040.342,209.49
1040.502,209.43
1040.642,209.39
1040.802,209.33
1040.942,209.29
1041.102,209.23
1041.302,209.17
1041.462,209.11
1041.602,209.07
1041.762,209.01
1041.902,208.97
1042.062,208.91
1042.242,208.86
1042.402,208.8
1042.542,208.76
1042.702,208.7
1043.002,208.6
1043.062,208.59
1043.222,208.53
1043.362,208.49
1043.522,208.43
1043.702,208.38
1043.862,208.32
1044.102,208.25
1044.142,208.23
1044.342,208.17
1044.502,208.11
1044.622,208.08
1044.782,208.02
1044.962,207.97
1045.122,207.91
1045.302,207.86
1045.462,207.8
1045.582,207.77
1045.802,207.69
1045.922,207.66
1046.182,207.57
1046.362,207.52
1046.402,207.5
1046.642,207.43
1046.802,207.37
1046.862,207.36
1047.022,207.3
1047.302,207.22
1047.462,207.16
1047.522,207.15
1047.682,207.09
1047.902,207.03
1048.062,206.97
1048.282,206.91
1048.322,206.89
1048.502,206.84
1048.762,206.75
1048.822,206.74
1048.982,206.68
1049.102,206.65
1049.302,206.58
1049.422,206.55
1049.622,206.48
1049.842,206.42
1049.942,206.38
1050.062,206.35
1050.362,206.25
1050.422,206.24
1050.682,206.15
1050.742,206.14
1050.942,206.07
1051.062,206.04
1051.202,205.99
1051.422,205.93
1051.622,205.86
1051.682,205.85
1051.882,205.78
1052.042,205.74
1052.142,205.7
1052.302,205.66
1052.502,205.59
1052.662,205.55
1052.862,205.48
1053.022,205.44
1053.162,205.39
1053.282,205.36
1053.422,205.31
1053.582,205.27
1053.822,205.19
1053.942,205.16
1054.082,205.11
1054.242,205.07
1054.382,205.02
1054.542,204.98
1054.782,204.9
1054.942,204.86
1055.082,204.81
1055.242,204.77
1055.382,204.72
1055.542,204.68
1055.682,204.63
1055.842,204.59
1055.982,204.54
1056.182,204.49
1056.322,204.44
1056.482,204.4
1056.622,204.35
1056.822,204.3
1056.962,204.25
1057.122,204.21
1057.302,204.15
1057.462,204.11
1057.602,204.06
1057.802,204.01
1057.942,203.96
1058.142,203.91
1058.222,203.88
1058.382,203.84
1058.562,203.78
1058.722,203.74
1058.902,203.68
1059.102,203.63
1059.242,203.58
1059.342,203.56
1059.522,203.5
1059.722,203.45
1059.862,203.4
1060.102,203.34
1060.142,203.32
1060.342,203.27
1060.522,203.21
1060.622,203.19
1060.802,203.13
1061.002,203.08
1061.182,203.02
1061.282,203
1061.462,202.94
1061.702,202.88
1061.742,202.86
1061.982,202.8
1062.162,202.74
1062.262,202.72
1062.442,202.66
1062.542,202.64
1062.722,202.58
1062.862,202.55
1063.042,202.49
1063.322,202.42
1063.362,202.4
1063.602,202.34
1063.682,202.31
1063.922,202.25
1064.002,202.22
1064.242,202.16
1064.322,202.13
1064.602,202.06
1064.642,202.04
1064.922,201.97
1064.962,201.95
1065.102,201.92
1065.322,201.85
1065.422,201.83
1065.642,201.76
1065.782,201.73
1066.002,201.66
1066.182,201.62
1066.222,201.6
1066.502,201.53
1066.582,201.5
1066.722,201.47
1066.982,201.39
1067.122,201.36
1067.202,201.33
1067.342,201.3
1067.562,201.23
1067.742,201.19
1067.822,201.16
1068.102,201.09
1068.222,201.05
1068.362,201.02
1068.482,200.98
1068.622,200.95
1068.882,200.87
1069.062,200.83
1069.102,200.81
1069.282,200.77
1069.442,200.72
1069.722,200.65
1069.842,200.61
1070.022,200.57
1070.062,200.55
1070.282,200.5
1070.402,200.46
1070.582,200.42
1070.702,200.38
1070.882,200.33
1071.102,200.28
1071.182,200.25
1071.402,200.2
1071.522,200.16
1071.702,200.12
1071.822,200.08
1072.002,200.04
1072.162,199.99
1072.342,199.95
1072.462,199.91
1072.682,199.86
1072.802,199.82
1073.022,199.77
1073.102,199.74
1073.362,199.68
1073.442,199.65
1073.702,199.59
1073.782,199.56
1073.922,199.53
1074.162,199.47
1074.242,199.44
1074.382,199.41
1074.622,199.34
1074.722,199.32
1075.002,199.25
1075.082,199.22
1075.182,199.2
1075.462,199.13
1075.582,199.09
1075.682,199.07
1075.822,199.03
1076.082,198.97
1076.162,198.94
1076.302,198.91
1076.482,198.86
1076.702,198.81
1076.782,198.78
1076.962,198.74
1077.102,198.7
1077.402,198.63
1077.482,198.6
1077.582,198.58
1077.762,198.53
1077.902,198.5
1078.082,198.45
1078.342,198.39
1078.382,198.37
1078.562,198.33
1078.702,198.29
1078.882,198.25
1079.022,198.21
1079.202,198.17
1079.342,198.13
1079.642,198.06
1079.762,198.02
1079.822,198.01
1080.002,197.96
1080.142,197.93
1080.322,197.88
1080.462,197.85
1080.642,197.8
1080.782,197.77
1080.962,197.72
1081.102,197.69
1081.282,197.64
1081.422,197.61
1081.602,197.56
1081.742,197.53
1081.922,197.48
1082.062,197.45
1082.242,197.4
1082.382,197.37
1082.642,197.3
1082.722,197.29
1082.862,197.25
1083.042,197.21
1083.182,197.17
1083.362,197.13
1083.502,197.09
1083.682,197.05
1083.822,197.01
1084.062,196.95
1084.142,196.94
1084.322,196.89
1084.462,196.86
1084.642,196.81
1084.922,196.74
1085.042,196.72
1085.102,196.7
1085.282,196.66
1085.422,196.62
1085.702,196.55
1085.782,196.54
1085.922,196.5
1086.062,196.47
1086.362,196.39
1086.402,196.39
1086.542,196.35
1086.722,196.31
1086.942,196.25
1087.022,196.24
1087.202,196.19
1087.442,196.13
1087.522,196.12
1087.662,196.08
1087.942,196.01
1087.982,196.01
1088.202,195.95
1088.402,195.91
1088.462,195.89
1088.742,195.82
1088.862,195.8
1088.962,195.77
1089.202,195.71
1089.282,195.7
1089.542,195.63
1089.622,195.62
1089.802,195.57
1090.002,195.53
1090.062,195.51
1090.302,195.45
1090.382,195.44
1090.642,195.37
1090.722,195.36
1090.982,195.29
1091.022,195.29
1091.282,195.22
1091.362,195.21
1091.622,195.14
1091.662,195.14
1091.922,195.07
1092.002,195.06
1092.222,195
1092.302,194.99
1092.482,194.94
1092.642,194.91
1092.782,194.87
1093.082,194.81
1093.142,194.79
1093.342,194.75
1093.562,194.69
1093.602,194.69
1093.822,194.63
1093.902,194.62
1094.082,194.57
1094.242,194.54
1094.522,194.47
1094.602,194.46
1094.822,194.4
1094.862,194.4
1095.042,194.35
1095.202,194.32
1095.482,194.25
1095.562,194.24
1095.742,194.19
1095.822,194.18
1096.102,194.11
1096.222,194.09
1096.402,194.04
1096.482,194.03
1096.622,193.99
1096.842,193.95
1097.022,193.9
1097.102,193.89
1097.382,193.82
1097.462,193.81
1097.642,193.76
1097.862,193.72
1098.042,193.67
1098.082,193.67
1098.222,193.63
1098.442,193.59
1098.622,193.54
1098.702,193.53
1098.982,193.46
1099.022,193.46
1099.302,193.39
1099.382,193.38
1099.522,193.34
1099.742,193.3
1099.882,193.26
1100.102,193.22
1100.242,193.18
1100.322,193.17
1100.602,193.1
1100.642,193.1
1100.922,193.03
1100.962,193.03
1101.102,192.99
1101.282,192.96
1101.422,192.92
1101.642,192.88
1101.742,192.85
1101.962,192.81
1102.062,192.78
1102.282,192.74
1102.382,192.71
1102.602,192.67
1102.702,192.64
1102.922,192.6
1103.022,192.57
1103.202,192.54
1103.342,192.5
1103.522,192.47
1103.762,192.41
1103.842,192.4
1104.082,192.34
1104.162,192.33
1104.362,192.28
1104.542,192.25
1104.682,192.21
1104.862,192.18
1104.962,192.15
1105.142,192.12
1105.382,192.06
1105.422,192.06
1105.662,192
1105.842,191.97
1105.942,191.94
1106.122,191.91
1106.222,191.88
1106.402,191.85
1106.602,191.8
1106.782,191.77
1106.882,191.74
1107.062,191.71
1107.262,191.66
1107.442,191.63
1107.542,191.6
1107.722,191.57
1107.822,191.54
1108.002,191.51
1108.202,191.46
1108.342,191.44
1108.582,191.38
1108.622,191.38
1108.822,191.33
1109.002,191.3
1109.202,191.25
1109.342,191.23
1109.442,191.2
1109.622,191.17
1109.822,191.12
1109.962,191.1
1110.062,191.07
1110.242,191.04
1110.402,191
1110.582,190.97
1110.782,190.92
1110.922,190.9
1111.122,190.85
1111.262,190.83
1111.362,190.8
1111.502,190.78
1111.702,190.73
1111.842,190.71
1112.042,190.66
1112.182,190.64
1112.382,190.59
1112.522,190.57
1112.622,190.54
1112.862,190.5
1113.062,190.45
1113.102,190.45
1113.262,190.41
1113.442,190.38
1113.602,190.34
1113.742,190.32
1113.942,190.27
1114.082,190.25
1114.242,190.21
1114.382,190.19
1114.582,190.14
1114.722,190.12
1114.882,190.08
1115.022,190.06
1115.222,190.01
1115.362,189.99
1115.522,189.95
1115.662,189.93
1115.822,189.89
1116.062,189.85
1116.222,189.81
1116.362,189.79
1116.522,189.75
1116.702,189.72
1116.862,189.68
1117.002,189.66
1117.162,189.62
1117.302,189.6
1117.462,189.56
1117.602,189.54
1117.822,189.49
1117.962,189.47
1118.122,189.43
1118.262,189.41
1118.422,189.37
1118.562,189.35
1118.722,189.31
1118.862,189.29
1119.022,189.25
1119.222,189.22
1119.382,189.18
1119.522,189.16
1119.682,189.12
1119.882,189.09
1120.042,189.05
1120.182,189.03
1120.342,188.99
1120.542,188.96
1120.702,188.92
1120.842,188.9
1120.962,188.87
1121.102,188.85
1121.262,188.81
1121.462,188.78
1121.622,188.74
1121.822,188.71
1121.982,188.67
1122.182,188.64
1122.242,188.62
1122.382,188.6
1122.602,188.55
1122.802,188.52
1122.862,188.5
1123.162,188.45
1123.222,188.43
1123.422,188.4
1123.582,188.36
1123.682,188.35
1123.842,188.31
1124.042,188.28
1124.162,188.25
1124.302,188.23
1124.522,188.18
1124.722,188.15
1124.782,188.13
1124.982,188.1
1125.102,188.07
1125.402,188.02
1125.462,188
1125.662,187.97
1125.782,187.94
1125.982,187.91
1126.142,187.87
1126.242,187.86
1126.462,187.81
1126.562,187.8
1126.722,187.76
1126.982,187.72
1127.042,187.7
1127.302,187.66
1127.362,187.64
1127.562,187.61
1127.682,187.58
1127.882,187.55
1128.002,187.52
1128.202,187.49
1128.322,187.46
1128.522,187.43
1128.642,187.4
1128.842,187.37
1129.062,187.32
1129.222,187.3
1129.282,187.28
1129.542,187.24
1129.602,187.22
1129.862,187.18
1129.922,187.16
1130.182,187.12
1130.302,187.09
1130.402,187.08
1130.622,187.03
1130.782,187.01
1130.902,186.98
1131.102,186.95
1131.222,186.92
1131.482,186.88
1131.542,186.86
1131.702,186.84
1131.922,186.79
1132.082,186.77
1132.142,186.75
1132.302,186.73
1132.522,186.68
1132.682,186.66
1132.802,186.63
1133.062,186.59
1133.182,186.56
1133.282,186.55
1133.562,186.49
1133.602,186.49
1133.782,186.45
1133.942,186.43
1134.062,186.4
1134.322,186.36
1134.442,186.33
1134.662,186.3
1134.722,186.28
1134.882,186.26
1135.162,186.2
1135.202,186.2
1135.382,186.16
1135.602,186.13
1135.662,186.11
1135.822,186.09
1136.002,186.05
1136.262,186.01
1136.442,185.97
1136.482,185.97
1136.662,185.93
1136.882,185.9
1136.942,185.88
1137.102,185.86
1137.282,185.82
1137.442,185.8
1137.622,185.76
1137.882,185.72
1137.902,185.71
1138.062,185.69
1138.242,185.65
1138.522,185.6
1138.562,185.6
1138.742,185.56
1138.902,185.54
1139.082,185.5
1139.182,185.49
1139.362,185.45
1139.522,185.43
1139.762,185.38
1139.862,185.37
1140.102,185.32
1140.142,185.32
1140.442,185.26
1140.482,185.26
1140.622,185.23
1140.782,185.21
1140.962,185.17
1141.122,185.15
1141.302,185.11
1141.462,185.09
1141.702,185.04
1141.742,185.04
1141.942,185
1142.102,184.98
1142.222,184.95
1142.382,184.93
1142.622,184.88
1142.722,184.87
1142.862,184.84
1143.082,184.81
1143.202,184.78
1143.362,184.76
1143.502,184.73
1143.662,184.71
1143.842,184.67
1144.002,184.65
1144.242,184.61
1144.302,184.59
1144.462,184.57
1144.662,184.53
1144.822,184.51
1145.002,184.47
1145.102,184.46
1145.302,184.42
1145.462,184.4
1145.602,184.37
1145.762,184.35
1145.942,184.31
1146.102,184.29
1146.242,184.26
1146.402,184.24
1146.542,184.21
1146.762,184.18
1146.882,184.15
1147.042,184.13
1147.182,184.1
1147.342,184.08
1147.542,184.04
1147.702,184.02
1147.842,183.99
1148.002,183.97
1148.142,183.94
1148.302,183.92
1148.482,183.88
1148.642,183.86
1148.782,183.83
1148.942,183.81
1149.142,183.77
1149.302,183.75
1149.442,183.72
1149.602,183.7
1149.742,183.67
1149.902,183.65
1150.102,183.61
1150.262,183.59
1150.402,183.56
1150.562,183.54
1150.702,183.51
1150.862,183.49
1151.062,183.45
1151.222,183.43
1151.362,183.4
1151.602,183.36
1151.662,183.36
1151.862,183.32
1152.022,183.3
1152.162,183.27
1152.322,183.25
1152.462,183.22
1152.622,183.2
1152.822,183.16
1152.982,183.14
1153.122,183.11
1153.302,183.09
1153.442,183.06
1153.602,183.04
1153.742,183.01
1153.902,182.99
1154.102,182.95
1154.282,182.93
1154.422,182.9
1154.582,182.88
1154.722,182.85
1154.882,182.83
1155.022,182.8
1155.202,182.78
1155.342,182.75
1155.502,182.73
1155.762,182.68
1155.822,182.68
1156.022,182.64
1156.182,182.62
1156.322,182.59
1156.502,182.57
1156.642,182.54
1156.802,182.52
1156.942,182.49
1157.122,182.47
1157.262,182.44
1157.562,182.4
1157.582,182.39
1157.742,182.37
1158.002,182.32
1158.062,182.32
1158.262,182.28
1158.502,182.25
1158.582,182.23
1158.742,182.21
1158.882,182.18
1159.062,182.16
1159.202,182.13
1159.382,182.11
1159.522,182.08
1159.762,182.04
1159.822,182.04
1160.022,182
1160.202,181.98
1160.342,181.95
1160.582,181.92
1160.662,181.9
1160.902,181.86
1160.962,181.86
1161.222,181.81
1161.282,181.81
1161.422,181.78
1161.662,181.75
1161.742,181.73
1161.982,181.7
1162.062,181.68
1162.302,181.65
1162.382,181.63
1162.622,181.6
1162.702,181.58
1162.942,181.55
1163.022,181.53
1163.262,181.5
1163.462,181.46
1163.522,181.46
1163.782,181.41
1163.842,181.41
1164.042,181.37
1164.162,181.36
1164.362,181.32
1164.482,181.31
1164.622,181.28
1164.802,181.26
1165.082,181.21
1165.202,181.2
1165.282,181.18
1165.462,181.16
1165.602,181.13
1165.782,181.11
1165.922,181.08
1166.102,181.06
1166.322,181.02
1166.502,181
1166.582,180.98
1166.762,180.96
1166.902,180.93
1167.022,180.92
1167.302,180.87
1167.422,180.86
1167.622,180.82
1167.682,180.82
1167.822,180.79
1168.002,180.77
1168.282,180.72
1168.342,180.72
1168.482,180.69
1168.662,180.67
1168.882,180.63
1169.002,180.62
1169.142,180.59
1169.262,180.58
1169.542,180.53
1169.662,180.52
1169.802,180.49
1169.922,180.48
1170.202,180.43
1170.262,180.43
1170.402,180.4
1170.662,180.37
1170.742,180.35
1170.862,180.34
1171.142,180.29
1171.262,180.28
1171.402,180.25
1171.522,180.24
1171.742,180.2
1171.862,180.19
1172.082,180.15
1172.202,180.14
1172.342,180.11
1172.542,180.09
1172.682,180.06
1172.802,180.05
1173.082,180
1173.142,180
1173.362,179.96
1173.482,179.95
1173.702,179.91
1173.822,179.9
1173.962,179.87
1174.162,179.85
1174.302,179.82
1174.502,179.8
1174.642,179.77
1174.702,179.77
1174.982,179.72
1175.042,179.72
1175.262,179.68
1175.382,179.67
1175.602,179.63
1175.662,179.63
1175.942,179.58
1176.002,179.58
1176.282,179.53
1176.342,179.53
1176.562,179.49
1176.622,179.49
1176.902,179.44
1176.962,179.44
1177.182,179.4
1177.302,179.39
1177.522,179.35
1177.582,179.35
1177.802,179.31
1178.002,179.29
1178.142,179.26
1178.342,179.24
1178.422,179.22
1178.622,179.2
1178.702,179.18
1178.902,179.16
1179.122,179.12
1179.182,179.12
1179.462,179.07
1179.522,179.07
1179.742,179.03
1179.942,179.01
1180.022,178.99
1180.222,178.97
1180.302,178.95
1180.502,178.93
1180.722,178.89
1180.782,178.89
1181.002,178.85
1181.202,178.83
1181.282,178.81
1181.562,178.78
1181.642,178.76
1181.842,178.74
1181.922,178.72
1182.122,178.7
1182.342,178.66
1182.402,178.66
1182.622,178.62
1182.762,178.61
1182.982,178.57
1183.042,178.57
1183.262,178.53
1183.382,178.52
1183.622,178.48
1183.682,178.48
1183.902,178.44
1184.022,178.43
1184.262,178.39
1184.322,178.39
1184.542,178.35
1184.682,178.34
1184.902,178.3
1184.962,178.3
1185.122,178.27
1185.322,178.25
1185.482,178.22
1185.682,178.2
1185.762,178.18
1185.902,178.17
1186.122,178.13
1186.242,178.12
1186.482,178.08
1186.622,178.07
1186.702,178.05
1186.982,178.02
1187.062,178
1187.182,177.99
1187.422,177.95
1187.562,177.94
1187.782,177.9
1187.842,177.9
1188.002,177.87
1188.142,177.86
1188.362,177.82
1188.502,177.81
1188.662,177.78
1188.782,177.77
1189.022,177.73
1189.162,177.72
1189.382,177.68
1189.442,177.68
1189.602,177.65
1189.742,177.64
1189.902,177.61
1190.182,177.58
1190.262,177.56
1190.402,177.55
1190.562,177.52
1190.842,177.49
1190.862,177.48
1191.142,177.45
1191.222,177.43
1191.362,177.42
1191.522,177.39
1191.802,177.36
1191.882,177.34
1192.022,177.33
1192.182,177.3
1192.322,177.29
1192.482,177.26
1192.622,177.25
1192.782,177.22
1192.982,177.2
1193.222,177.16
1193.282,177.16
1193.442,177.13
1193.582,177.12
1193.742,177.09
1193.962,177.07
1194.122,177.04
1194.242,177.03
1194.422,177
1194.542,176.99
1194.722,176.96
1194.922,176.94
1195.022,176.92
1195.222,176.9
1195.402,176.87
1195.522,176.86
1195.702,176.83
1195.822,176.82
1196.002,176.79
1196.202,176.77
1196.302,176.75
1196.502,176.73
1196.742,176.7
1196.822,176.68
1196.962,176.67
1197.202,176.63
1197.262,176.63
1197.442,176.6
1197.642,176.58
1197.742,176.56
1197.942,176.54
1198.122,176.51
1198.262,176.5
1198.422,176.47
1198.562,176.46
1198.722,176.43
1198.862,176.42
1199.042,176.39
1199.242,176.37
1199.342,176.35
1199.562,176.33
1199.722,176.3
1199.862,176.29
1200.102,176.25
1200.162,176.25
1200.342,176.22
1200.482,176.21
1200.642,176.18
1200.782,176.17
1200.962,176.14
1201.102,176.13
1201.262,176.1
1201.482,176.08
1201.582,176.06
1201.782,176.04
1201.962,176.01
1202.102,176
1202.342,175.96
1202.402,175.96
1202.582,175.93
1202.722,175.92
1202.902,175.89
1203.022,175.88
1203.202,175.85
1203.342,175.84
1203.522,175.81
1203.662,175.8
1203.902,175.76
1204.042,175.75
1204.142,175.73
1204.362,175.71
1204.462,175.69
1204.682,175.67
1204.842,175.64
1204.982,175.63
1205.162,175.6
1205.302,175.59
1205.482,175.56
1205.622,175.55
1205.802,175.52
1205.942,175.51
1206.102,175.48
1206.242,175.47
1206.422,175.44
1206.562,175.43
1206.742,175.4
1206.882,175.39
1207.062,175.36
1207.202,175.35
1207.382,175.32
1207.522,175.31
1207.702,175.28
1207.842,175.27
1208.022,175.24
1208.162,175.23
1208.342,175.2
1208.482,175.19
1208.662,175.16
1208.802,175.15
1208.982,175.12
1209.122,175.11
1209.302,175.08
1209.442,175.07
1209.622,175.04
1209.762,175.03
1209.942,175
1210.082,174.99
1210.262,174.96
1210.402,174.95
1210.582,174.92
1210.722,174.91
1210.902,174.88
1211.042,174.87
1211.222,174.84
1211.362,174.83
1211.562,174.8
1211.702,174.79
1211.882,174.76
1212.022,174.75
1212.202,174.72
1212.342,174.71
1212.522,174.68
1212.662,174.67
1212.842,174.64
1213.002,174.63
1213.102,174.61
1213.322,174.59
1213.422,174.57
1213.642,174.55
1213.742,174.53
1213.902,174.52
1214.082,174.49
1214.222,174.48
1214.402,174.45
1214.542,174.44
1214.742,174.41
1214.882,174.4
1215.062,174.37
1215.202,174.36
1215.382,174.33
1215.542,174.32
1215.722,174.29
1215.862,174.28
1215.982,174.26
1216.202,174.24
1216.302,174.22
1216.522,174.2
1216.622,174.18
1216.782,174.17
1216.962,174.14
1217.202,174.12
1217.302,174.1
1217.442,174.09
1217.622,174.06
1217.782,174.05
1217.962,174.02
1218.102,174.01
1218.222,173.99
1218.442,173.97
1218.542,173.95
1218.702,173.94
1218.882,173.91
1219.022,173.9
1219.222,173.87
1219.362,173.86
1219.542,173.83
1219.702,173.82
1219.882,173.79
1220.042,173.78
1220.142,173.76
1220.362,173.74
1220.482,173.72
1220.622,173.71
1220.822,173.68
1220.962,173.67
1221.142,173.64
1221.302,173.63
1221.482,173.6
1221.642,173.59
1221.742,173.57
1221.902,173.56
1222.082,173.53
1222.242,173.52
1222.422,173.49
1222.582,173.48
1222.762,173.45
1222.922,173.44
1223.022,173.42
1223.262,173.4
1223.362,173.38
1223.602,173.36
1223.702,173.34
1223.862,173.33
1224.042,173.3
1224.202,173.29
1224.302,173.27
1224.462,173.26
1224.642,173.23
1224.802,173.22
1224.982,173.19
1225.142,173.18
1225.322,173.15
1225.482,173.14
1225.582,173.12
1225.742,173.11
1226.022,173.07
1226.182,173.06
1226.282,173.04
1226.442,173.03
1226.542,173.01
1226.702,173
1226.882,172.97
1227.042,172.96
1227.322,172.92
1227.382,172.92
1227.502,172.9
1227.742,172.88
1227.842,172.86
1228.002,172.85
1228.182,172.82
1228.342,172.81
1228.542,172.78
1228.702,172.77
1228.802,172.75
1228.962,172.74
1229.242,172.7
1229.402,172.69
1229.422,172.68
1229.662,172.66
1229.762,172.64
1229.922,172.63
1230.202,172.59
1230.282,172.59
1230.382,172.57
1230.542,172.56
1230.742,172.53
1230.982,172.51
1231.082,172.49
1231.242,172.48
1231.342,172.46
1231.502,172.45
1231.702,172.42
1231.862,172.41
1232.062,172.38
1232.222,172.37
1232.322,172.35
1232.582,172.33
1232.682,172.31
1232.842,172.3
1232.942,172.28
1233.102,172.27
1233.302,172.24
1233.462,172.23
1233.662,172.2
1233.822,172.19
1233.922,172.17
1234.082,172.16
1234.282,172.13
1234.442,172.12
1234.642,172.09
1234.722,172.09
1235.002,172.05
1235.082,172.05
1235.182,172.03
1235.342,172.02
1235.542,171.99
1235.802,171.97
1235.822,171.96
1235.982,171.95
1236.262,171.91
1236.342,171.91
1236.542,171.88
1236.702,171.87
1236.802,171.85
1236.962,171.84
1237.162,171.81
1237.322,171.8
1237.522,171.77
1237.602,171.77
1237.802,171.74
1237.962,171.73
1238.162,171.7
1238.242,171.7
1238.442,171.67
1238.602,171.66
1238.802,171.63
1238.882,171.63
1239.162,171.59
1239.242,171.59
1239.442,171.56
1239.522,171.56
1239.802,171.52
1239.882,171.52
1240.082,171.49
1240.162,171.49
1240.362,171.46
1240.522,171.45
1240.722,171.42
1240.802,171.42
1241.002,171.39
1241.162,171.38
1241.282,171.36
1241.442,171.35
1241.642,171.32
1241.822,171.31
1241.922,171.29
1242.102,171.28
1242.302,171.25
1242.462,171.24
1242.662,171.21
1242.742,171.21
1242.942,171.18
1243.022,171.18
1243.222,171.15
1243.402,171.14
1243.502,171.12
1243.682,171.11
1243.882,171.08
1244.042,171.07
1244.162,171.05
1244.322,171.04
1244.542,171.01
1244.702,171
1244.902,170.97
1244.982,170.97
1245.182,170.94
1245.262,170.94
1245.462,170.91
1245.642,170.9
1245.742,170.88
1245.922,170.87
1246.122,170.84
1246.302,170.83
1246.402,170.81
1246.582,170.8
1246.782,170.77
1246.862,170.77
1247.062,170.74
1247.242,170.73
1247.442,170.7
1247.522,170.7
1247.742,170.67
1247.902,170.66
1248.102,170.63
1248.182,170.63
1248.302,170.61
1248.462,170.6
1248.682,170.57
1248.842,170.56
1248.962,170.54
1249.142,170.53
1249.342,170.5
1249.422,170.5
1249.722,170.46
1249.802,170.46
1249.922,170.44
1250.102,170.43
1250.302,170.4
1250.382,170.4
1250.582,170.37
1250.762,170.36
1250.882,170.34
1251.042,170.33
1251.262,170.3
1251.342,170.3
1251.642,170.26
1251.722,170.26
1251.842,170.24
1252.022,170.23
1252.222,170.2
1252.302,170.2
1252.522,170.17
1252.682,170.16
1252.802,170.14
1252.982,170.13
1253.102,170.11
1253.262,170.1
1253.482,170.07
1253.662,170.06
1253.782,170.04
1253.942,170.03
1254.062,170.01
1254.242,170
1254.462,169.97
1254.542,169.97
1254.742,169.94
1254.922,169.93
1255.042,169.91
1255.222,169.9
1255.342,169.88
1255.502,169.87
1255.722,169.84
1255.902,169.83
1256.022,169.81
1256.202,169.8
1256.322,169.78
1256.482,169.77
1256.702,169.74
1256.782,169.74
1257.002,169.71
1257.182,169.7
1257.302,169.68
1257.482,169.67
1257.602,169.65
1257.782,169.64
1257.982,169.61
1258.062,169.61
1258.282,169.58
1258.462,169.57
1258.582,169.55
1258.762,169.54
1258.882,169.52
1259.062,169.51
1259.182,169.49
1259.362,169.48
1259.582,169.45
1259.662,169.45
1259.882,169.42
1260.062,169.41
1260.182,169.39
1260.362,169.38
1260.482,169.36
1260.662,169.35
1260.782,169.33
1260.962,169.32
1261.182,169.29
1261.262,169.29
1261.482,169.26
1261.662,169.25
1261.782,169.23
1261.962,169.22
1262.082,169.2
1262.262,169.19
1262.382,169.17
1262.562,169.16
1262.782,169.13
1262.862,169.13
1263.082,169.1
1263.262,169.09
1263.382,169.07
1263.562,169.06
1263.682,169.04
1263.862,169.03
1264.002,169.01
1264.182,169
1264.302,168.98
1264.482,168.97
1264.702,168.94
1264.782,168.94
1265.002,168.91
1265.182,168.9
1265.322,168.88
1265.502,168.87
1265.622,168.85
1265.802,168.84
1265.922,168.82
1266.102,168.81
1266.222,168.79
1266.422,168.78
1266.542,168.76
1266.722,168.75
1266.942,168.72
1267.022,168.72
1267.262,168.69
1267.342,168.69
1267.562,168.66
1267.742,168.65
1267.862,168.63
1268.062,168.62
1268.182,168.6
1268.362,168.59
1268.482,168.57
1268.682,168.56
1268.802,168.54
1268.982,168.53
1269.102,168.51
1269.302,168.5
1269.422,168.48
1269.602,168.47
1269.742,168.45
1269.922,168.44
1270.142,168.41
1270.222,168.41
1270.462,168.38
1270.542,168.38
1270.762,168.35
1270.962,168.34
1271.082,168.32
1271.262,168.31
1271.402,168.29
1271.582,168.28
1271.702,168.26
1271.902,168.25
1272.022,168.23
1272.202,168.22
1272.342,168.2
1272.522,168.19
1272.642,168.17
1272.842,168.16
1272.962,168.14
1273.162,168.13
1273.282,168.11
1273.462,168.1
1273.602,168.08
1273.782,168.07
1273.902,168.05
1274.102,168.04
1274.222,168.02
1274.422,168.01
1274.542,167.99
1274.742,167.98
1274.862,167.96
1275.162,167.94
1275.182,167.93
1275.482,167.91
1275.502,167.9
1275.802,167.88
1275.822,167.87
1276.002,167.86
1276.142,167.84
1276.322,167.83
1276.462,167.81
1276.642,167.8
1276.782,167.78
1276.962,167.77
1277.102,167.75
1277.282,167.74
1277.422,167.72
1277.602,167.71
1277.742,167.69
1277.922,167.68
1278.062,167.66
1278.362,167.64
1278.382,167.63
1278.682,167.61
1278.702,167.6
1279.002,167.58
1279.022,167.57
1279.322,167.55
1279.342,167.54
1279.542,167.53
1279.662,167.51
1279.862,167.5
1279.982,167.48
1280.182,167.47
1280.302,167.45
1280.502,167.44
1280.642,167.42
1280.822,167.41
1281.062,167.38
1281.162,167.38
1281.282,167.36
1281.482,167.35
1281.602,167.33
1281.802,167.32
1281.942,167.3
1282.142,167.29
1282.262,167.27
1282.462,167.26
1282.582,167.24
1282.782,167.23
1282.922,167.21
1283.122,167.2
1283.242,167.18
1283.342,167.18
1283.562,167.15
1283.662,167.15
1283.902,167.12
1283.982,167.12
1284.222,167.09
1284.322,167.09
1284.462,167.07
1284.762,167.05
1284.782,167.04
1284.982,167.03
1285.102,167.01
1285.302,167
1285.542,166.97
1285.642,166.97
1285.762,166.95
1285.962,166.94
1286.102,166.92
1286.302,166.91
1286.442,166.89
1286.642,166.88
1286.762,166.86
1286.862,166.86
1287.102,166.83
1287.182,166.83
1287.422,166.8
1287.522,166.8
1287.762,166.77
1287.862,166.77
1287.982,166.75
1288.182,166.74
1288.322,166.72
1288.522,166.71
1288.662,166.69
1288.862,166.68
1288.982,166.66
1289.202,166.65
1289.322,166.63
1289.422,166.63
1289.662,166.6
1289.762,166.6
1289.902,166.58
1290.202,166.56
1290.222,166.55
1290.422,166.54
1290.662,166.51
1290.762,166.51
1290.902,166.49
1291.102,166.48
1291.242,166.46
1291.442,166.45
1291.582,166.43
1291.662,166.43
1291.902,166.4
1292.002,166.4
1292.242,166.37
1292.342,166.37
1292.482,166.35
1292.682,166.34
1292.822,166.32
1293.022,166.31
1293.162,166.29
1293.362,166.28
1293.502,166.26
1293.582,166.26
1293.842,166.23
1293.942,166.23
1294.062,166.21
1294.282,166.2
1294.402,166.18
1294.622,166.17
1294.742,166.15
1294.962,166.14
1295.102,166.12
1295.182,166.12
1295.442,166.09
1295.522,166.09
1295.662,166.07
1295.882,166.06
1296.002,166.04
1296.222,166.03
1296.362,166.01
1296.562,166
1296.702,165.98
1296.802,165.98
1297.042,165.95
1297.142,165.95
1297.382,165.92
1297.482,165.92
1297.622,165.9
1297.842,165.89
1297.962,165.87
1298.062,165.87
1298.322,165.84
1298.402,165.84
1298.542,165.82
1298.762,165.81
1298.902,165.79
1299.102,165.78
1299.242,165.76
1299.342,165.76
1299.582,165.73
1299.682,165.73
1299.822,165.71
1300.042,165.7
1300.182,165.68
1300.382,165.67
1300.522,165.65
1300.622,165.65
1300.882,165.62
1300.962,165.62
1301.102,165.6
1301.322,165.59
1301.462,165.57
1301.682,165.56
1301.802,165.54
1301.902,165.54
1302.162,165.51
1302.262,165.51
1302.402,165.49
1302.622,165.48
1302.742,165.46
1302.962,165.45
1303.102,165.43
1303.202,165.43
1303.342,165.41
1303.562,165.4
1303.702,165.38
1303.902,165.37
1304.042,165.35
1304.142,165.35
1304.402,165.32
1304.502,165.32
1304.642,165.3
1304.862,165.29
1305.002,165.27
1305.102,165.27
1305.362,165.24
1305.462,165.24
1305.582,165.22
1305.802,165.21
1305.942,165.19
1306.162,165.18
1306.302,165.16
1306.402,165.16
1306.542,165.14
1306.762,165.13
1306.902,165.11
1307.122,165.1
1307.262,165.08
1307.362,165.08
1307.502,165.06
1307.722,165.05
1307.862,165.03
1308.082,165.02
1308.222,165
1308.322,165
1308.462,164.98
1308.682,164.97
1308.822,164.95
1309.042,164.94
1309.182,164.92
1309.282,164.92
1309.422,164.9
1309.642,164.89
1309.782,164.87
1310.002,164.86
1310.142,164.84
1310.242,164.84
1310.402,164.82
1310.622,164.81
1310.762,164.79
1310.862,164.79
1311.122,164.76
1311.222,164.76
1311.362,164.74
1311.582,164.73
1311.722,164.71
1311.822,164.71
1311.982,164.69
1312.202,164.68
1312.342,164.66
1312.562,164.65
1312.702,164.63
1312.802,164.63
1312.942,164.61
1313.182,164.6
1313.322,164.58
1313.422,164.58
1313.682,164.55
1313.782,164.55
1313.922,164.53
1314.162,164.52
1314.302,164.5
1314.402,164.5
1314.542,164.48
1314.762,164.47
1314.902,164.45
1315.022,164.45
1315.282,164.42
1315.382,164.42
1315.522,164.4
1315.762,164.39
1315.902,164.37
1316.002,164.37
1316.142,164.35
1316.382,164.34
1316.522,164.32
1316.622,164.32
1316.882,164.29
1316.982,164.29
1317.142,164.27
1317.362,164.26
1317.502,164.24
1317.622,164.24
1317.762,164.22
1317.982,164.21
1318.122,164.19
1318.242,164.19
1318.382,164.17
1318.602,164.16
1318.762,164.14
1318.862,164.14
1319.122,164.11
1319.242,164.11
1319.382,164.09
1319.602,164.08
1319.762,164.06
1319.862,164.06
1320.002,164.04
1320.242,164.03
1320.382,164.01
1320.482,164.01
1320.642,163.99
1320.862,163.98
1321.002,163.96
1321.122,163.96
1321.262,163.94
1321.502,163.93
1321.642,163.91
1321.742,163.91
1321.902,163.89
1322.122,163.88
1322.282,163.86
1322.382,163.86
1322.542,163.84
1322.762,163.83
1322.902,163.81
1323.022,163.81
1323.282,163.78
1323.402,163.78
1323.542,163.76
1323.782,163.75
1323.922,163.73
1324.022,163.73
1324.182,163.71
1324.402,163.7
1324.562,163.68
1324.662,163.68
1324.822,163.66
1325.042,163.65
1325.202,163.63
1325.302,163.63
1325.462,163.61
1325.682,163.6
1325.842,163.58
1325.942,163.58
1326.102,163.56
1326.322,163.55
1326.482,163.53
1326.582,163.53
1326.742,163.51
1326.982,163.5
1327.122,163.48
1327.222,163.48
1327.382,163.46
1327.622,163.45
1327.762,163.43
1327.882,163.43
1328.022,163.41
1328.142,163.41
1328.402,163.38
1328.522,163.38
1328.662,163.36
1328.782,163.36
1328.942,163.34
1329.162,163.33
1329.322,163.31
1329.422,163.31
1329.582,163.29
1329.822,163.28
1329.962,163.26
1330.082,163.26
1330.222,163.24
1330.462,163.23
1330.622,163.21
1330.722,163.21
1330.882,163.19
1331.122,163.18
1331.262,163.16
1331.382,163.16
1331.522,163.14
1331.782,163.13
1331.922,163.11
1332.042,163.11
1332.182,163.09
1332.302,163.09
1332.462,163.07
1332.682,163.06
1332.842,163.04
1332.962,163.04
1333.102,163.02
1333.342,163.01
1333.502,162.99
1333.602,162.99
1333.762,162.97
1334.002,162.96
1334.162,162.94
1334.262,162.94
1334.422,162.92
1334.542,162.92
1334.702,162.9
1334.922,162.89
1335.082,162.87
1335.202,162.87
1335.342,162.85
1335.602,162.84
1335.742,162.82
1335.862,162.82
1336.022,162.8
1336.262,162.79
1336.402,162.77
1336.522,162.77
1336.682,162.75
1336.782,162.75
1336.942,162.73
1337.182,162.72
1337.342,162.7
1337.462,162.7
1337.602,162.68
1337.862,162.67
1338.002,162.65
1338.122,162.65
1338.282,162.63
1338.402,162.63
1338.542,162.61
1338.802,162.6
1338.942,162.58
1339.062,162.58
1339.222,162.56
1339.342,162.56
1339.502,162.54
1339.742,162.53
1339.882,162.51
1340.002,162.51
1340.162,162.49
1340.402,162.48
1340.562,162.46
1340.682,162.46
1340.842,162.44
1340.942,162.44
1341.102,162.42
1341.362,162.41
1341.502,162.39
1341.622,162.39
1341.782,162.37
1341.902,162.37
1342.062,162.35
1342.302,162.34
1342.462,162.32
1342.582,162.32
1342.742,162.3
1342.982,162.29
1343.022,162.28
1343.262,162.27
1343.422,162.25
1343.522,162.25
1343.682,162.23
1343.942,162.22
1343.982,162.21
1344.222,162.2
1344.362,162.18
1344.482,162.18
1344.642,162.16
1344.902,162.15
1344.942,162.14
1345.162,162.13
1345.322,162.11
1345.442,162.11
1345.602,162.09
1345.862,162.08
1345.902,162.07
1346.142,162.06
1346.282,162.04
1346.402,162.04
1346.562,162.02
1346.822,162.01
1346.862,162
1347.102,161.99
1347.262,161.97
1347.382,161.97
1347.542,161.95
1347.782,161.94
1347.822,161.93
1348.062,161.92
1348.222,161.9
1348.342,161.9
1348.502,161.88
1348.622,161.88
1348.782,161.86
1349.042,161.85
1349.202,161.83
1349.322,161.83
1349.482,161.81
1349.602,161.81
1349.762,161.79
1350.022,161.78
1350.062,161.77
1350.302,161.76
1350.442,161.74
1350.562,161.74
1350.722,161.72
1350.982,161.71
1351.022,161.7
1351.262,161.69
1351.422,161.67
1351.542,161.67
1351.702,161.65
1351.842,161.65
1352.002,161.63
1352.262,161.62
1352.302,161.61
1352.542,161.6
1352.702,161.58
1352.822,161.58
1352.982,161.56
1353.102,161.56
1353.262,161.54
1353.522,161.53
1353.682,161.51
1353.802,161.51
1353.962,161.49
1354.082,161.49
1354.242,161.47
1354.502,161.46
1354.542,161.45
1354.802,161.44
1354.962,161.42
1355.082,161.42
1355.242,161.4
1355.362,161.4
1355.522,161.38
1355.782,161.37
1355.942,161.35
1356.082,161.35
1356.242,161.33
1356.362,161.33
1356.522,161.31
1356.642,161.31
1356.802,161.29
1357.082,161.28
1357.102,161.27
1357.362,161.26
1357.522,161.24
1357.642,161.24
1357.802,161.22
1357.922,161.22
1358.102,161.2
1358.222,161.2
1358.382,161.18
1358.642,161.17
1358.822,161.15
1358.942,161.15
1359.102,161.13
1359.222,161.13
1359.382,161.11
1359.522,161.11
1359.682,161.09
1359.942,161.08
1359.982,161.07
1360.242,161.06
1360.402,161.04
1360.522,161.04
1360.682,161.02
1360.822,161.02
1360.982,161
1361.102,161
1361.262,160.98
1361.542,160.97
1361.582,160.96
1361.822,160.95
1362.002,160.93
1362.122,160.93
1362.282,160.91
1362.402,160.91
1362.582,160.89
1362.702,160.89
1362.862,160.87
1363.142,160.86
1363.182,160.85
1363.422,160.84
1363.602,160.82
1363.722,160.82
1363.882,160.8
1364.022,160.8
1364.182,160.78
1364.302,160.78
1364.482,160.76
1364.742,160.75
1364.782,160.74
1365.042,160.73
1365.202,160.71
1365.342,160.71
1365.502,160.69
1365.622,160.69
1365.802,160.67
1365.922,160.67
1366.082,160.65
1366.222,160.65
1366.382,160.63
1366.662,160.62
1366.822,160.6
1366.962,160.6
1367.122,160.58
1367.242,160.58
1367.422,160.56
1367.542,160.56
1367.722,160.54
1367.842,160.54
1368.002,160.52
1368.142,160.52
1368.302,160.5
1368.582,160.49
1368.622,160.48
1368.882,160.47
1369.042,160.45
1369.182,160.45
1369.342,160.43
1369.482,160.43
1369.642,160.41
1369.782,160.41
1369.942,160.39
1370.082,160.39
1370.242,160.37
1370.382,160.37
1370.542,160.35
1370.822,160.34
1370.982,160.32
1371.122,160.32
1371.282,160.3
1371.422,160.3
1371.582,160.28
1371.722,160.28
1371.882,160.26
1372.022,160.26
1372.202,160.24
1372.322,160.24
1372.502,160.22
1372.622,160.22
1372.802,160.2
1373.082,160.19
1373.102,160.18
1373.382,160.17
1373.422,160.16
1373.682,160.15
1373.842,160.13
1373.982,160.13
1374.162,160.11
1374.282,160.11
1374.462,160.09
1374.582,160.09
1374.762,160.07
1374.882,160.07
1375.062,160.05
1375.202,160.05
1375.362,160.03
1375.502,160.03
1375.662,160.01
1375.962,160
1375.982,159.99
1376.262,159.98
1376.302,159.97
1376.562,159.96
1376.742,159.94
1376.862,159.94
1377.042,159.92
1377.182,159.92
1377.342,159.9
1377.482,159.9
1377.662,159.88
1377.782,159.88
1377.962,159.86
1378.102,159.86
1378.262,159.84
1378.402,159.84
1378.582,159.82
1378.702,159.82
1378.882,159.8
1379.022,159.8
1379.182,159.78
1379.482,159.77
1379.502,159.76
1379.782,159.75
1379.822,159.74
1380.102,159.73
1380.142,159.72
1380.402,159.71
1380.582,159.69
1380.722,159.69
1380.882,159.67
1381.022,159.67
1381.202,159.65
1381.342,159.65
1381.502,159.63
1381.642,159.63
1381.822,159.61
1381.962,159.61
1382.122,159.59
1382.262,159.59
1382.442,159.57
1382.582,159.57
1382.742,159.55
1382.882,159.55
1383.062,159.53
1383.202,159.53
1383.382,159.51
1383.502,159.51
1383.682,159.49
1383.822,159.49
1384.002,159.47
1384.142,159.47
1384.322,159.45
1384.602,159.44
1384.622,159.43
1384.922,159.42
1384.942,159.41
1385.242,159.4
1385.262,159.39
1385.542,159.38
1385.582,159.37
1385.862,159.36
1385.902,159.35
1386.182,159.34
1386.222,159.33
1386.482,159.32
1386.662,159.3
1386.802,159.3
1386.982,159.28
1387.122,159.28
1387.302,159.26
1387.442,159.26
1387.622,159.24
1387.762,159.24
1387.942,159.22
1388.062,159.22
1388.242,159.2
1388.382,159.2
1388.562,159.18
1388.702,159.18
1388.882,159.16
1389.022,159.16
1389.202,159.14
1389.342,159.14
1389.522,159.12
1389.662,159.12
1389.842,159.1
1389.982,159.1
1390.162,159.08
1390.302,159.08
1390.482,159.06
1390.622,159.06
1390.802,159.04
1390.942,159.04
1391.122,159.02
1391.262,159.02
1391.442,159
1391.582,159
1391.762,158.98
1391.902,158.98
1392.082,158.96
1392.222,158.96
1392.402,158.94
1392.542,158.94
1392.722,158.92
1392.862,158.92
1393.042,158.9
1393.182,158.9
1393.362,158.88
1393.502,158.88
1393.682,158.86
1393.822,158.86
1394.002,158.84
1394.162,158.84
1394.342,158.82
1394.482,158.82
1394.662,158.8
1394.802,158.8
1394.982,158.78
1395.122,158.78
1395.302,158.76
1395.442,158.76
1395.622,158.74
1395.782,158.74
1395.822,158.73
1396.102,158.72
1396.142,158.71
1396.422,158.7
1396.462,158.69
1396.742,158.68
1396.782,158.67
1397.082,158.66
1397.102,158.65
1397.402,158.64
1397.422,158.63
1397.722,158.62
1397.742,158.61
1398.042,158.6
1398.082,158.59
1398.222,158.59
1398.402,158.57
1398.542,158.57
1398.722,158.55
1398.882,158.55
1399.062,158.53
1399.202,158.53
1399.382,158.51
1399.522,158.51
1399.722,158.49
1399.862,158.49
1400.042,158.47
1400.182,158.47
1400.382,158.45
1400.522,158.45
1400.702,158.43
1400.842,158.43
1401.042,158.41
1401.182,158.41
1401.362,158.39
1401.502,158.39
1401.702,158.37
1401.842,158.37
1402.022,158.35
1402.182,158.35
1402.222,158.34
1402.502,158.33
1402.542,158.32
1402.842,158.31
1402.862,158.3
1403.162,158.29
1403.182,158.28
1403.342,158.28
1403.522,158.26
1403.662,158.26
1403.862,158.24
1404.002,158.24
1404.182,158.22
1404.342,158.22
1404.522,158.2
1404.662,158.2
1404.862,158.18
1405.002,158.18
1405.182,158.16
1405.342,158.16
1405.522,158.14
1405.682,158.14
1405.862,158.12
1406.002,158.12
1406.062,158.11
1406.362,158.09
1406.522,158.09
1406.542,158.08
1406.842,158.07
1406.862,158.06
1407.022,158.06
1407.202,158.04
1407.362,158.04
1407.542,158.02
1407.702,158.02
1407.882,158
1408.022,158
1408.222,157.98
1408.362,157.98
1408.562,157.96
1408.702,157.96
1408.902,157.94
1409.042,157.94
1409.102,157.93
1409.402,157.91
1409.562,157.91
1409.582,157.9
1409.882,157.89
1409.922,157.88
1410.062,157.88
1410.262,157.86
1410.402,157.86
1410.602,157.84
1410.742,157.84
1410.942,157.82
1411.082,157.82
1411.282,157.8
1411.422,157.8
1411.622,157.78
1411.762,157.78
1411.822,157.77
1412.122,157.75
1412.282,157.75
1412.302,157.74
1412.462,157.74
1412.642,157.72
1412.802,157.72
1412.982,157.7
1413.142,157.7
1413.322,157.68
1413.482,157.68
1413.682,157.66
1413.822,157.66
1414.022,157.64
1414.162,157.64
1414.362,157.62
1414.522,157.62
1414.542,157.61
1414.842,157.6
1414.882,157.59
1415.042,157.59
1415.222,157.57
1415.382,157.57
1415.562,157.55
1415.722,157.55
1415.922,157.53
1416.062,157.53
1416.262,157.51
1416.422,157.51
1416.462,157.5
1416.762,157.49
1416.782,157.48
1416.942,157.48
1417.122,157.46
1417.282,157.46
1417.482,157.44
1417.642,157.44
1417.822,157.42
1417.982,157.42
1418.182,157.4
1418.322,157.4
1418.522,157.38
1418.682,157.38
1418.702,157.37
1418.862,157.37
1419.042,157.35
1419.202,157.35
1419.402,157.33
1419.562,157.33
1419.742,157.31
1419.902,157.31
1420.102,157.29
1420.262,157.29
1420.302,157.28
1420.602,157.27
1420.622,157.26
1420.782,157.26
1420.982,157.24
1421.142,157.24
1421.322,157.22
1421.482,157.22
1421.682,157.2
1421.842,157.2
1421.902,157.19
1422.202,157.17
1422.362,157.17
1422.382,157.16
1422.542,157.16
1422.742,157.14
1422.902,157.14
1423.102,157.12
1423.262,157.12
1423.442,157.1
1423.602,157.1
1423.802,157.08
1423.962,157.08
1423.982,157.07
1424.142,157.07
1424.342,157.05
1424.502,157.05
1424.702,157.03
1424.842,157.03
1425.042,157.01
1425.202,157.01
1425.402,156.99
1425.562,156.99
1425.582,156.98
1425.742,156.98
1425.942,156.96
1426.102,156.96
1426.302,156.94
1426.462,156.94
1426.662,156.92
1426.822,156.92
1426.862,156.91
1427.162,156.9
1427.202,156.89
1427.342,156.89
1427.542,156.87
1427.702,156.87
1427.902,156.85
1428.062,156.85
1428.262,156.83
1428.422,156.83
1428.462,156.82
1428.762,156.81
1428.802,156.8
1428.962,156.8
1429.162,156.78
1429.322,156.78
1429.522,156.76
1429.702,156.76
1429.742,156.75
1430.042,156.74
1430.082,156.73
1430.242,156.73
1430.442,156.71
1430.602,156.71
1430.802,156.69
1430.962,156.69
1431.162,156.67
1431.322,156.67
1431.342,156.66
1431.502,156.66
1431.702,156.64
1431.862,156.64
1432.062,156.62
1432.222,156.62
1432.442,156.6
1432.602,156.6
1432.622,156.59
1432.782,156.59
1432.982,156.57
1433.142,156.57
1433.342,156.55
1433.502,156.55
1433.702,156.53
1433.882,156.53
1433.902,156.52
1434.062,156.52
1434.262,156.5
1434.422,156.5
1434.622,156.48
1434.782,156.48
1435.002,156.46
1435.162,156.46
1435.182,156.45
1435.342,156.45
1435.542,156.43
1435.702,156.43
1435.922,156.41
1436.082,156.41
1436.282,156.39
1436.442,156.39
1436.462,156.38
1436.622,156.38
1436.842,156.36
1437.002,156.36
1437.202,156.34
1437.362,156.34
1437.422,156.33
1437.722,156.32
1437.762,156.31
1437.922,156.31
1438.122,156.29
1438.302,156.29
1438.502,156.27
1438.662,156.27
1438.702,156.26
1438.862,156.26
1439.062,156.24
1439.222,156.24
1439.422,156.22
1439.602,156.22
1439.802,156.2
1439.962,156.2
1439.982,156.19
1440.162,156.19
1440.362,156.17
1440.522,156.17
1440.742,156.15
1440.902,156.15
1440.942,156.14
1441.242,156.13
1441.302,156.12
1441.462,156.12
1441.662,156.1
1441.842,156.1
1442.042,156.08
1442.202,156.08
1442.242,156.07
1442.402,156.07
1442.602,156.05
1442.782,156.05
1442.982,156.03
1443.162,156.03
1443.182,156.02
1443.342,156.02
1443.542,156
1443.722,156
1443.922,155.98
1444.102,155.98
1444.142,155.97
1444.442,155.96
1444.502,155.95
1444.662,155.95
1444.862,155.93
1445.042,155.93
1445.242,155.91
1445.402,155.91
1445.442,155.9
1445.602,155.9
1445.822,155.88
1445.982,155.88
1446.202,155.86
1446.362,155.86
1446.382,155.85
1446.562,155.85
1446.762,155.83
1446.942,155.83
1447.142,155.81
1447.322,155.81
1447.342,155.8
1447.502,155.8
1447.722,155.78
1447.902,155.78
1448.102,155.76
1448.282,155.76
1448.302,155.75
1448.462,155.75
1448.682,155.73
1448.842,155.73
1449.062,155.71
1449.222,155.71
1449.262,155.7
1449.422,155.7
1449.642,155.68
1449.802,155.68
1450.022,155.66
1450.182,155.66
1450.222,155.65
1450.382,155.65
1450.602,155.63
1450.762,155.63
1450.982,155.61
1451.162,155.61
1451.182,155.6
1451.342,155.6
1451.562,155.58
1451.742,155.58
1451.942,155.56
1452.122,155.56
1452.142,155.55
1452.302,155.55
1452.522,155.53
1452.702,155.53
1452.922,155.51
1453.082,155.51
1453.102,155.5
1453.282,155.5
1453.502,155.48
1453.662,155.48
1453.882,155.46
1454.042,155.46
1454.082,155.45
1454.242,155.45
1454.462,155.43
1454.642,155.43
1454.702,155.42
1455.002,155.41
1455.042,155.4
1455.222,155.4
1455.442,155.38
1455.622,155.38
1455.662,155.37
1455.962,155.36
1456.022,155.35
1456.202,155.35
1456.422,155.33
1456.602,155.33
1456.622,155.32
1456.782,155.32
1457.002,155.3
1457.182,155.3
1457.402,155.28
1457.562,155.28
1457.602,155.27
1457.762,155.27
1457.982,155.25
1458.162,155.25
1458.222,155.24
1458.522,155.23
1458.582,155.22
1458.762,155.22
1458.982,155.2
1459.142,155.2
1459.182,155.19
1459.342,155.19
1459.562,155.17
1459.742,155.17
1459.962,155.15
1460.122,155.15
1460.162,155.14
1460.342,155.14
1460.562,155.12
1460.742,155.12
1460.782,155.11
1461.082,155.1
1461.142,155.09
1461.322,155.09
1461.542,155.07
1461.722,155.07
1461.742,155.06
1461.922,155.06
1462.142,155.04
1462.322,155.04
1462.382,155.03
1462.682,155.02
1462.742,155.01
1462.922,155.01
1463.142,154.99
1463.322,154.99
1463.342,154.98
1463.522,154.98
1463.742,154.96
1463.922,154.96
1463.982,154.95
1464.282,154.94
1464.342,154.93
1464.522,154.93
1464.742,154.91
1464.922,154.91
1464.942,154.9
1465.122,154.9
1465.342,154.88
1465.522,154.88
1465.582,154.87
1465.882,154.86
1465.942,154.85
1466.122,154.85
1466.342,154.83
1466.522,154.83
1466.562,154.82
1466.742,154.82
1466.962,154.8
1467.142,154.8
1467.182,154.79
1467.342,154.79
1467.562,154.77
1467.742,154.77
1467.962,154.75
1468.122,154.75
1468.162,154.74
1468.362,154.74
1468.582,154.72
1468.762,154.72
1468.782,154.71
1468.962,154.71
1469.182,154.69
1469.362,154.69
1469.422,154.68
1469.582,154.67
1469.782,154.67
1470.002,154.65
1470.182,154.65
1470.222,154.64
1470.382,154.64
1470.602,154.62
1470.802,154.62
1470.862,154.61
1471.162,154.6
1471.222,154.59
1471.402,154.59
1471.622,154.57
1471.802,154.57
1471.842,154.56
1472.022,154.56
1472.242,154.54
1472.422,154.54
1472.462,154.53
1472.642,154.53
1472.862,154.51
1473.042,154.51
1473.102,154.5
1473.262,154.5
1473.482,154.48
1473.662,154.48
1473.882,154.46
1474.042,154.46
1474.102,154.45
1474.282,154.45
1474.502,154.43
1474.682,154.43
1474.722,154.42
1474.902,154.42
1475.122,154.4
1475.322,154.4
1475.342,154.39
1475.522,154.39
1475.742,154.37
1475.942,154.37
1475.982,154.36
1476.142,154.36
1476.362,154.34
1476.562,154.34
1476.622,154.33
1476.782,154.32
1476.982,154.32
1477.202,154.3
1477.382,154.3
1477.422,154.29
1477.602,154.29
1477.822,154.27
1478.022,154.27
1478.062,154.26
1478.222,154.26
1478.462,154.24
1478.642,154.24
1478.702,154.23
1478.862,154.22
1479.062,154.22
1479.282,154.2
1479.482,154.2
1479.502,154.19
1479.682,154.19
1479.922,154.17
1480.102,154.17
1480.142,154.16
1480.322,154.16
1480.542,154.14
1480.742,154.14
1480.782,154.13
1480.942,154.13
1481.182,154.11
1481.362,154.11
1481.422,154.1
1481.582,154.1
1481.802,154.08
1482.002,154.08
1482.062,154.07
1482.222,154.06
1482.422,154.06
1482.662,154.04
1482.842,154.04
1482.862,154.03
1483.062,154.03
1483.282,154.01
1483.482,154.01
1483.502,154
1483.682,154
1483.922,153.98
1484.122,153.98
1484.142,153.97
1484.322,153.97
1484.562,153.95
1484.762,153.95
1484.782,153.94
1484.962,153.94
1485.202,153.92
1485.382,153.92
1485.422,153.91
1485.602,153.91
1485.842,153.89
1486.022,153.89
1486.062,153.88
1486.242,153.88
1486.482,153.86
1486.662,153.86
1486.702,153.85
1486.882,153.85
1487.122,153.83
1487.302,153.83
1487.342,153.82
1487.522,153.82
1487.762,153.8
1487.962,153.8
1487.982,153.79
1488.162,153.79
1488.402,153.77
1488.602,153.77
1488.622,153.76
1488.822,153.76
1489.042,153.74
1489.242,153.74
1489.262,153.73
1489.462,153.73
1489.702,153.71
1489.882,153.71
1489.902,153.7
1490.102,153.7
1490.342,153.68
1490.522,153.68
1490.562,153.67
1490.762,153.67
1490.982,153.65
1491.162,153.65
1491.202,153.64
1491.402,153.64
1491.642,153.62
1491.802,153.62
1491.862,153.61
1492.062,153.61
1492.282,153.59
1492.442,153.59
1492.502,153.58
1492.702,153.58
1492.782,153.57
1492.942,153.56
1493.142,153.56
1493.382,153.54
1493.562,153.54
1493.602,153.53
1493.802,153.53
1494.022,153.51
1494.202,153.51
1494.242,153.5
1494.442,153.5
1494.682,153.48
1494.842,153.48
1494.902,153.47
1495.102,153.47
1495.182,153.46
1495.342,153.45
1495.542,153.45
1495.782,153.43
1495.962,153.43
1496.002,153.42
1496.202,153.42
1496.442,153.4
1496.602,153.4
1496.662,153.39
1496.862,153.39
1496.942,153.38
1497.102,153.37
1497.302,153.37
1497.542,153.35
1497.722,153.35
1497.762,153.34
1497.962,153.34
1498.202,153.32
1498.362,153.32
1498.422,153.31
1498.622,153.31
1498.702,153.3
1498.862,153.29
1499.062,153.29
1499.302,153.27
1499.482,153.27
1499.522,153.26
1499.722,153.26
1499.962,153.25
1499.982,153.24
1500.182,153.24
1500.422,153.22
1500.602,153.22
1500.642,153.21
1500.842,153.21
1501.082,153.19
1501.242,153.19
1501.302,153.18
1501.502,153.18
1501.582,153.17
1501.742,153.16
1501.962,153.16
1502.202,153.14
1502.362,153.14
1502.422,153.13
1502.622,153.13
1502.702,153.12
1502.862,153.11
1503.062,153.11
1503.322,153.09
1503.482,153.09
1503.542,153.08
1503.742,153.08
1503.822,153.07
1503.982,153.06
1504.202,153.06
1504.442,153.04
1504.602,153.04
1504.662,153.03
1504.862,153.03
1504.942,153.02
1505.102,153.01
1505.322,153.01
1505.562,152.99
1505.722,152.99
1505.782,152.98
1506.002,152.98
1506.062,152.97
1506.222,152.97
1506.462,152.95
1506.662,152.95
1506.702,152.94
1506.902,152.94
1507.142,152.92
1507.322,152.92
1507.362,152.91
1507.582,152.91
1507.662,152.9
1507.822,152.89
1508.022,152.89
1508.282,152.87
1508.442,152.87
1508.502,152.86
1508.702,152.86
1508.782,152.85
1508.942,152.85
1509.182,152.83
1509.402,152.83
1509.422,152.82
1509.622,152.82
1509.862,152.8
1510.042,152.8
1510.102,152.79
1510.302,152.79
1510.382,152.78
1510.542,152.78
1510.782,152.76
1510.982,152.76
1511.022,152.75
1511.222,152.75
1511.462,152.73
1511.642,152.73
1511.702,152.72
1511.902,152.72
1511.982,152.71
1512.142,152.71
1512.382,152.69
1512.602,152.69
1512.622,152.68
1512.822,152.68
1513.082,152.66
1513.242,152.66
1513.302,152.65
1513.522,152.65
1513.582,152.64
1513.742,152.64
1514.002,152.62
1514.202,152.62
1514.222,152.61
1514.442,152.61
1514.682,152.59
1514.842,152.59
1514.922,152.58
1515.122,152.58
1515.182,152.57
1515.362,152.57
1515.622,152.55
1515.802,152.55
1515.842,152.54
1516.062,152.54
1516.142,152.53
1516.302,152.52
1516.522,152.52
1516.762,152.51
1516.782,152.5
1516.982,152.5
1517.242,152.48
1517.402,152.48
1517.482,152.47
1517.682,152.47
1517.742,152.46
1517.922,152.46
1518.162,152.44
1518.362,152.44
1518.402,152.43
1518.622,152.43
1518.702,152.42
1518.862,152.42
1519.102,152.4
1519.322,152.4
1519.342,152.39
1519.562,152.39
1519.802,152.37
1519.962,152.37
1520.042,152.36
1520.262,152.36
1520.302,152.35
1520.502,152.35
1520.742,152.33
1520.922,152.33
1520.982,152.32
1521.202,152.32
1521.262,152.31
1521.442,152.31
1521.682,152.29
1521.882,152.29
1521.922,152.28
1522.142,152.28
1522.222,152.27
1522.382,152.27
1522.622,152.25
1522.842,152.25
1522.862,152.24
1523.082,152.24
1523.322,152.23
1523.342,152.22
1523.562,152.22
1523.802,152.21
1523.822,152.2
1524.022,152.2
1524.282,152.18
1524.442,152.18
1524.522,152.17
1524.742,152.17
1524.782,152.16
1524.982,152.16
1525.242,152.14
1525.402,152.14
1525.482,152.13
1525.702,152.13
1525.742,152.12
1525.942,152.12
1526.182,152.1
1526.362,152.1
1526.422,152.09
1526.642,152.09
1526.702,152.08
1526.882,152.08
1527.142,152.06
1527.322,152.06
1527.382,152.05
1527.602,152.05
1527.662,152.04
1527.842,152.04
1528.102,152.02
1528.282,152.02
1528.342,152.01
1528.562,152.01
1528.622,152
1528.802,152
1529.062,151.98
1529.242,151.98
1529.302,151.97
1529.522,151.97
1529.582,151.96
1529.762,151.96
1530.022,151.94
1530.202,151.94
1530.262,151.93
1530.482,151.93
1530.542,151.92
1530.722,151.92
1530.982,151.9
1531.162,151.9
1531.222,151.89
1531.462,151.89
1531.502,151.88
1531.702,151.88
1531.962,151.86
1532.122,151.86
1532.202,151.85
1532.422,151.85
1532.462,151.84
1532.662,151.84
1532.922,151.82
1533.082,151.82
1533.162,151.81
1533.402,151.81
1533.422,151.8
1533.642,151.8
1533.882,151.79
1533.902,151.78
1534.122,151.78
1534.362,151.77
1534.382,151.76
1534.602,151.76
1534.702,151.75
1534.862,151.75
1535.122,151.73
1535.322,151.73
1535.362,151.72
1535.582,151.72
1535.662,151.71
1535.842,151.71
1536.102,151.69
1536.282,151.69
1536.342,151.68
1536.562,151.68
1536.622,151.67
1536.822,151.67
1537.082,151.65
1537.242,151.65
1537.322,151.64
1537.542,151.64
1537.582,151.63
1537.802,151.63
1538.042,151.62
1538.062,151.61
1538.282,151.61
1538.382,151.6
1538.542,151.6
1538.802,151.58
1539.002,151.58
1539.042,151.57
1539.282,151.57
1539.342,151.56
1539.522,151.56
1539.782,151.54
1539.962,151.54
1540.042,151.53
1540.262,151.53
1540.302,151.52
1540.502,151.52
1540.762,151.51
1540.782,151.5
1541.002,151.5
1541.102,151.49
1541.262,151.49
1541.522,151.47
1541.722,151.47
1541.762,151.46
1542.002,151.46
1542.062,151.45
1542.242,151.45
1542.522,151.43
1542.682,151.43
1542.762,151.42
1543.002,151.42
1543.022,151.41
1543.242,151.41
1543.342,151.4
1543.502,151.4
1543.762,151.38
1543.962,151.38
1544.022,151.37
1544.242,151.37
1544.302,151.36
1544.502,151.36
1544.762,151.34
1544.922,151.34
1545.022,151.33
1545.242,151.33
1545.262,151.32
1545.502,151.32
1545.582,151.31
1545.742,151.31
1546.022,151.29
1546.202,151.29
1546.282,151.28
1546.502,151.28
1546.542,151.27
1546.762,151.27
1547.002,151.26
1547.022,151.25
1547.262,151.25
1547.342,151.24
1547.522,151.24
1547.782,151.22
1547.962,151.22
1548.042,151.21
1548.262,151.21
1548.302,151.2
1548.522,151.2
1548.622,151.19
1548.782,151.19
1549.042,151.17
1549.242,151.17
1549.302,151.16
1549.542,151.16
1549.582,151.15
1549.802,151.15
1550.042,151.14
1550.062,151.13
1550.302,151.13
1550.382,151.12
1550.562,151.12
1550.822,151.1
1551.002,151.1
1551.082,151.09
1551.322,151.09
1551.342,151.08
1551.582,151.08
1551.662,151.07
1551.822,151.07
1552.102,151.05
1552.282,151.05
1552.362,151.04
1552.602,151.04
1552.622,151.03
1552.842,151.03
1552.942,151.02
1553.102,151.02
1553.382,151
1553.562,151
1553.642,150.99
1553.882,150.99
1553.902,150.98
1554.142,150.98
1554.222,150.97
1554.382,150.97
1554.662,150.95
1554.842,150.95
1554.922,150.94
1555.162,150.94
1555.182,150.93
1555.422,150.93
1555.502,150.92
1555.682,150.92
1555.962,150.9
1556.122,150.9
1556.222,150.89
1556.442,150.89
1556.482,150.88
1556.702,150.88
1556.782,150.87
1556.962,150.87
1557.242,150.85
1557.402,150.85
1557.502,150.84
1557.722,150.84
1557.762,150.83
1558.002,150.83
1558.062,150.82
1558.262,150.82
1558.522,150.81
1558.542,150.8
1558.782,150.8
1558.862,150.79
1559.042,150.79
1559.322,150.77
1559.482,150.77
1559.582,150.76
1559.802,150.76
1559.842,150.75
1560.082,150.75
1560.142,150.74
1560.342,150.74
1560.602,150.73
1560.622,150.72
1560.862,150.72
1560.942,150.71
1561.142,150.71
1561.402,150.7
1561.422,150.69
1561.662,150.69
1561.742,150.68
1561.922,150.68
1562.202,150.66
1562.362,150.66
1562.462,150.65
1562.682,150.65
1562.722,150.64
1562.962,150.64
1563.022,150.63
1563.222,150.63
1563.482,150.62
1563.522,150.61
1563.762,150.61
1563.822,150.6
1564.022,150.6
1564.282,150.59
1564.302,150.58
1564.542,150.58
1564.622,150.57
1564.822,150.57
1565.082,150.56
1565.102,150.55
1565.342,150.55
1565.422,150.54
1565.602,150.54
1565.882,150.52
1566.042,150.52
1566.162,150.51
1566.362,150.51
1566.422,150.5
1566.662,150.5
1566.702,150.49
1566.922,150.49
1567.022,150.48
1567.202,150.48
1567.482,150.46
1567.642,150.46
1567.742,150.45
1567.962,150.45
1568.022,150.44
1568.262,150.44
1568.302,150.43
1568.522,150.43
1568.622,150.42
1568.802,150.42
1569.082,150.4
1569.242,150.4
1569.342,150.39
1569.562,150.39
1569.622,150.38
1569.862,150.38
1569.902,150.37
1570.122,150.37
1570.222,150.36
1570.402,150.36
1570.682,150.34
1570.842,150.34
1570.962,150.33
1571.162,150.33
1571.222,150.32
1571.462,150.32
1571.502,150.31
1571.742,150.31
1571.822,150.3
1572.022,150.29
1572.282,150.29
1572.302,150.28
1572.542,150.28
1572.622,150.27
1572.822,150.27
1573.082,150.26
1573.102,150.25
1573.362,150.25
1573.422,150.24
1573.622,150.24
1573.882,150.23
1573.922,150.22
1574.162,150.22
1574.222,150.21
1574.442,150.21
1574.542,150.2
1574.722,150.19
1574.982,150.19
1575.022,150.18
1575.242,150.18
1575.342,150.17
1575.542,150.16
1575.802,150.16
1575.822,150.15
1576.062,150.15
1576.142,150.14
1576.342,150.14
1576.602,150.13
1576.622,150.12
1576.882,150.12
1576.942,150.11
1577.162,150.11
1577.262,150.1
1577.442,150.09
1577.702,150.09
1577.742,150.08
1577.982,150.08
1578.062,150.07
1578.262,150.06
1578.522,150.06
1578.542,150.05
1578.802,150.05
1578.862,150.04
1579.062,150.04
1579.322,150.03
1579.362,150.02
1579.622,150.02
1579.662,150.01
1579.882,150.01
1579.982,150
1580.182,149.99
1580.442,149.99
1580.462,149.98
1580.722,149.98
1580.782,149.97
1580.982,149.97
1581.242,149.96
1581.282,149.95
1581.542,149.95
1581.582,149.94
1581.822,149.94
1581.902,149.93
1582.102,149.93
1582.362,149.92
1582.382,149.91
1582.642,149.91
1582.702,149.9
1582.922,149.9
1583.022,149.89
1583.222,149.88
1583.482,149.88
1583.502,149.87
1583.762,149.87
1583.822,149.86
1584.022,149.86
1584.282,149.85
1584.322,149.84
1584.582,149.84
1584.622,149.83
1584.862,149.83
1584.942,149.82
1585.142,149.82
1585.402,149.81
1585.442,149.8
1585.702,149.8
1585.742,149.79
1585.982,149.79
1586.062,149.78
1586.262,149.78
1586.522,149.77
1586.562,149.76
1586.822,149.76
1586.862,149.75
1587.102,149.75
1587.182,149.74
1587.382,149.74
1587.642,149.73
1587.682,149.72
1587.942,149.72
1587.982,149.71
1588.222,149.71
1588.302,149.7
1588.502,149.7
1588.762,149.69
1588.802,149.68
1589.062,149.68
1589.102,149.67
1589.342,149.67
1589.422,149.66
1589.622,149.66
1589.882,149.65
1589.922,149.64
1590.182,149.64
1590.222,149.63
1590.462,149.63
1590.542,149.62
1590.742,149.62
1591.002,149.61
1591.042,149.6
1591.302,149.6
1591.342,149.59
1591.602,149.59
1591.662,149.58
1591.882,149.58
1591.982,149.57
1592.182,149.56
1592.442,149.56
1592.462,149.55
1592.722,149.55
1592.782,149.54
1593.002,149.54
1593.102,149.53
1593.302,149.53
1593.562,149.52
1593.602,149.51
1593.862,149.51
1593.902,149.5
1594.142,149.5
1594.222,149.49
1594.422,149.49
1594.542,149.48
1594.742,149.47
1595.002,149.47
1595.022,149.46
1595.282,149.46
1595.342,149.45
1595.562,149.45
1595.662,149.44
1595.862,149.44
1596.122,149.43
1596.162,149.42
1596.422,149.42
1596.462,149.41
1596.722,149.41
1596.782,149.4
1597.002,149.4
1597.102,149.39
1597.302,149.38
1597.562,149.38
1597.602,149.37
1597.862,149.37
1597.902,149.36
1598.142,149.36
1598.222,149.35
1598.442,149.35
1598.542,149.34
1598.742,149.33
1599.002,149.33
1599.042,149.32
1599.302,149.32
1599.342,149.31
1599.582,149.31
1599.662,149.3
1599.882,149.3
1599.982,149.29
1600.182,149.28
1600.442,149.28
1600.482,149.27
1600.742,149.27
1600.782,149.26
1601.042,149.26
1601.102,149.25
1601.322,149.25
1601.422,149.24
1601.622,149.24
1601.882,149.23
1601.922,149.22
1602.202,149.22
1602.222,149.21
1602.482,149.21
1602.542,149.2
1602.782,149.2
1602.862,149.19
1603.062,149.19
1603.182,149.18
1603.382,149.17
1603.642,149.17
1603.662,149.16
1603.942,149.16
1603.982,149.15
1604.242,149.15
1604.302,149.14
1604.522,149.14
1604.622,149.13
1604.822,149.13
1605.082,149.12
1605.122,149.11
1605.402,149.11
1605.422,149.1
1605.702,149.1
1605.742,149.09
1605.982,149.09
1606.062,149.08
1606.282,149.08
1606.382,149.07
1606.582,149.07
1606.842,149.06
1606.882,149.05
1607.162,149.05
1607.182,149.04
1607.462,149.04
1607.502,149.03
1607.742,149.03
1607.822,149.02
1608.042,149.02
1608.142,149.01
1608.342,149.01
1608.462,149
1608.662,148.99
1608.922,148.99
1608.942,148.98
1609.222,148.98
1609.262,148.97
1609.522,148.97
1609.582,148.96
1609.822,148.96
1609.902,148.95
1610.122,148.95
1610.222,148.94
1610.422,148.93
1610.682,148.93
1610.722,148.92
1611.002,148.92
1611.022,148.91
1611.302,148.91
1611.342,148.9
1611.602,148.9
1611.662,148.89
1611.902,148.89
1611.982,148.88
1612.182,148.88
1612.302,148.87
1612.502,148.86
1612.762,148.86
1612.802,148.85
1613.082,148.85
1613.102,148.84
1613.382,148.84
1613.422,148.83
1613.682,148.83
1613.742,148.82
1613.982,148.82
1614.062,148.81
1614.282,148.81
1614.382,148.8
1614.582,148.8
1614.702,148.79
1614.902,148.78
1615.162,148.78
1615.202,148.77
1615.482,148.77
1615.502,148.76
1615.782,148.76
1615.822,148.75
1616.082,148.75
1616.142,148.74
1616.382,148.74
1616.462,148.73
1616.682,148.73
1616.782,148.72
1616.982,148.72
1617.102,148.71
1617.302,148.7
1617.562,148.7
1617.602,148.69
1617.882,148.69
1617.902,148.68
1618.182,148.68
1618.222,148.67
1618.482,148.67
1618.542,148.66
1618.782,148.66
1618.862,148.65
1619.102,148.65
1619.182,148.64
1619.402,148.64
1619.502,148.63
1619.702,148.63
1619.822,148.62
1620.022,148.61
1620.282,148.61
1620.322,148.6
1620.602,148.6
1620.622,148.59
1620.922,148.59
1620.942,148.58
1621.222,148.58
1621.262,148.57
1621.522,148.57
1621.582,148.56
1621.822,148.56
1621.902,148.55
1622.142,148.55
1622.222,148.54
1622.442,148.54
1622.542,148.53
1622.742,148.53
1622.862,148.52
1623.062,148.51
1623.322,148.51
1623.382,148.5
1623.642,148.5
1623.682,148.49
1623.962,148.49
1623.982,148.48
1624.282,148.48
1624.302,148.47
1624.582,148.47
1624.622,148.46
1624.882,148.46
1624.942,148.45
1625.202,148.45
1625.262,148.44
1625.502,148.44
1625.582,148.43
1625.802,148.43
1625.902,148.42
1626.122,148.42
1626.222,148.41
1626.422,148.41
1626.542,148.4
1626.742,148.4
1626.862,148.39
1627.062,148.38
1627.322,148.38
1627.362,148.37
1627.642,148.37
1627.682,148.36
1627.962,148.36
1627.982,148.35
1628.282,148.35
1628.302,148.34
1628.582,148.34
1628.622,148.33
1628.902,148.33
1628.942,148.32
1629.202,148.32
1629.262,148.31
1629.522,148.31
1629.582,148.3
1629.822,148.3
1629.902,148.29
1630.142,148.29
1630.222,148.28
1630.442,148.28
1630.542,148.27
1630.762,148.27
1630.862,148.26
1631.082,148.26
1631.182,148.25
1631.382,148.25
1631.502,148.24
1631.702,148.24
1631.822,148.23
1632.022,148.22
1632.282,148.22
1632.342,148.21
1632.602,148.21
1632.662,148.2
1632.922,148.2
1632.962,148.19
1633.242,148.19
1633.282,148.18
1633.562,148.18
1633.602,148.17
1633.882,148.17
1633.902,148.16
1634.202,148.16
1634.222,148.15
1634.522,148.15
1634.542,148.14
1634.822,148.14
1634.862,148.13
1635.142,148.13
1635.182,148.12
1635.462,148.12
1635.502,148.11
1635.782,148.11
1635.822,148.1
1636.082,148.1
1636.142,148.09
1636.402,148.09
1636.462,148.08
1636.722,148.08
1636.782,148.07
1637.042,148.07
1637.102,148.06
1637.362,148.06
1637.422,148.05
1637.662,148.05
1637.742,148.04
1637.982,148.04
1638.062,148.03
1638.302,148.03
1638.382,148.02
1638.622,148.02
1638.702,148.01
1638.942,148.01
1639.022,148
1639.262,148
1639.342,147.99
1639.582,147.99
1639.662,147.98
1639.882,147.98
1639.982,147.97
1640.202,147.97
1640.302,147.96
1640.522,147.96
1640.622,147.95
1640.842,147.95
1640.942,147.94
1641.162,147.94
1641.262,147.93
1641.482,147.93
1641.582,147.92
1641.802,147.92
1641.902,147.91
1642.122,147.91
1642.222,147.9
1642.442,147.9
1642.542,147.89
1642.762,147.89
1642.862,147.88
1643.082,147.88
1643.182,147.87
1643.402,147.87
1643.502,147.86
1643.722,147.86
1643.822,147.85
1644.042,147.85
1644.142,147.84
1644.362,147.84
1644.462,147.83
1644.702,147.83
1644.782,147.82
1645.022,147.82
1645.102,147.81
1645.342,147.81
1645.422,147.8
1645.662,147.8
1645.742,147.79
1645.982,147.79
1646.062,147.78
1646.302,147.78
1646.382,147.77
1646.622,147.77
1646.702,147.76
1646.962,147.76
1647.022,147.75
1647.282,147.75
1647.342,147.74
1647.602,147.74
1647.662,147.73
1647.922,147.73
1647.982,147.72
1648.242,147.72
1648.302,147.71
1648.582,147.71
1648.622,147.7
1648.902,147.7
1648.942,147.69
1649.222,147.69
1649.262,147.68
1649.542,147.68
1649.582,147.67
1649.882,147.67
1649.902,147.66
1650.202,147.66
1650.222,147.65
1650.522,147.65
1650.542,147.64
1650.842,147.64
1650.882,147.63
1651.162,147.63
1651.202,147.62
1651.482,147.62
1651.522,147.61
1651.802,147.61
1651.862,147.6
1652.122,147.6
1652.182,147.59
1652.442,147.59
1652.522,147.58
1652.762,147.58
1652.842,147.57
1653.082,147.57
1653.162,147.56
1653.402,147.56
1653.502,147.55
1653.722,147.55
1653.822,147.54
1654.042,147.54
1654.162,147.53
1654.362,147.53
1654.482,147.52
1654.682,147.52
1654.802,147.52
1654.862,147.51
1655.122,147.51
1655.182,147.5
1655.462,147.5
1655.502,147.49
1655.782,147.49
1655.822,147.48
1656.122,147.48
1656.142,147.47
1656.442,147.47
1656.462,147.46
1656.762,147.46
1656.802,147.45
1657.082,147.45
1657.122,147.44
1657.402,147.44
1657.462,147.43
1657.722,147.43
1657.802,147.42
1658.042,147.42
1658.122,147.41
1658.362,147.41
1658.462,147.4
1658.682,147.4
1658.782,147.39
1659.002,147.39
1659.122,147.38
1659.322,147.38
1659.442,147.38
1659.502,147.37
1659.762,147.37
1659.822,147.36
1660.102,147.36
1660.142,147.35
1660.442,147.35
1660.462,147.34
1660.762,147.34
1660.802,147.33
1661.082,147.33
1661.122,147.32
1661.402,147.32
1661.462,147.31
1661.722,147.31
1661.802,147.3
1662.042,147.3
1662.142,147.29
1662.362,147.29
1662.462,147.28
1662.682,147.28
1662.802,147.27
1663.002,147.27
1663.122,147.27
1663.182,147.26
1663.462,147.26
1663.502,147.25
1663.802,147.25
1663.822,147.24
1664.122,147.24
1664.142,147.23
1664.442,147.23
1664.482,147.22
1664.762,147.22
1664.822,147.21
1665.082,147.21
1665.162,147.2
1665.402,147.2
1665.502,147.19
1665.722,147.19
1665.842,147.18
1666.042,147.18
1666.162,147.18
1666.222,147.17
1666.502,147.17
1666.542,147.16
1666.842,147.16
1666.862,147.15
1667.162,147.15
1667.202,147.14
1667.482,147.14
1667.542,147.13
1667.802,147.13
1667.882,147.12
1668.122,147.12
1668.222,147.11
1668.442,147.11
1668.562,147.1
1668.762,147.1
1668.882,147.1
1668.942,147.09
1669.222,147.09
1669.262,147.08
1669.562,147.08
1669.582,147.07
1669.882,147.07
1669.922,147.06
1670.202,147.06
1670.262,147.05
1670.522,147.05
1670.602,147.04
1670.842,147.04
1670.942,147.03
1671.162,147.03
1671.282,147.02
1671.482,147.02
1671.602,147.02
1671.662,147.01
1671.962,147.01
1671.982,147
1672.282,147
1672.322,146.99
1672.602,146.99
1672.662,146.98
1672.922,146.98
1673.002,146.97
1673.242,146.97
1673.342,146.96
1673.562,146.96
1673.682,146.96
1673.742,146.95
1674.022,146.95
1674.062,146.94
1674.362,146.94
1674.382,146.93
1674.682,146.93
1674.722,146.92
1675.002,146.92
1675.082,146.91
1675.322,146.91
1675.422,146.9
1675.642,146.9
1675.762,146.89
1675.962,146.89
1676.102,146.89
1676.142,146.88
1676.442,146.88
1676.462,146.87
1676.762,146.87
1676.802,146.86
1677.082,146.86
1677.162,146.85
1677.402,146.85
1677.502,146.84
1677.722,146.84
1677.842,146.83
1678.042,146.83
1678.182,146.83
1678.222,146.82
1678.522,146.82
1678.542,146.81
1678.842,146.81
1678.902,146.8
1679.162,146.8
1679.242,146.79
1679.482,146.79
1679.602,146.78
1679.802,146.78
1679.922,146.78
1679.982,146.77
1680.282,146.77
1680.302,146.76
1680.602,146.76
1680.642,146.75
1680.922,146.75
1681.002,146.74
1681.242,146.74
1681.342,146.73
1681.562,146.73
1681.682,146.73
1681.742,146.72
1682.022,146.72
1682.062,146.71
1682.362,146.71
1682.402,146.7
1682.682,146.7
1682.742,146.69
1683.002,146.69
1683.102,146.68
1683.322,146.68
1683.442,146.68
1683.502,146.67
1683.782,146.67
1683.822,146.66
1684.122,146.66
1684.162,146.65
1684.442,146.65
1684.502,146.64
1684.762,146.64
1684.862,146.63
1685.082,146.63
1685.202,146.63
1685.262,146.62
1685.562,146.62
1685.582,146.61
1685.882,146.61
1685.922,146.6
1686.202,146.6
1686.282,146.59
1686.522,146.59
1686.642,146.58
1686.842,146.58
1686.982,146.58
1687.022,146.57
1687.322,146.57
1687.342,146.56
1687.642,146.56
1687.702,146.55
1687.962,146.55
1688.062,146.54
1688.282,146.54
1688.402,146.54
1688.462,146.53
1688.762,146.53
1688.782,146.52
1689.082,146.52
1689.122,146.51
1689.402,146.51
1689.482,146.5
1689.722,146.5
1689.842,146.49
1690.042,146.49
1690.182,146.49
1690.222,146.48
1690.522,146.48
1690.562,146.47
1690.842,146.47
1690.922,146.46
1691.162,146.46
1691.282,146.45
1691.482,146.45
1691.622,146.45
1691.662,146.44
1691.962,146.44
1692.002,146.43
1692.282,146.43
1692.362,146.42
1692.602,146.42
1692.722,146.41
1692.922,146.41
1693.062,146.41
1693.102,146.4
1693.402,146.4
1693.442,146.39
1693.722,146.39
1693.802,146.38
1694.042,146.38
1694.162,146.37
1694.362,146.37
1694.502,146.37
1694.542,146.36
1694.842,146.36
1694.882,146.35
1695.162,146.35
1695.242,146.34
1695.482,146.34
1695.602,146.33
1695.802,146.33
1695.942,146.33
1695.982,146.32
1696.282,146.32
1696.322,146.31
1696.602,146.31
1696.702,146.3
1696.922,146.3
1697.042,146.3
1697.102,146.29
1697.402,146.29
1697.422,146.28
1697.722,146.28
1697.782,146.27
1698.042,146.27
1698.142,146.26
1698.362,146.26
1698.502,146.26
1698.542,146.25
1698.842,146.25
1698.882,146.24
1699.162,146.24
1699.242,146.23
1699.482,146.23
1699.602,146.22
1699.662,146.22
1699.962,146.22
1699.982,146.21
1700.282,146.21
1700.342,146.2
1700.602,146.2
1700.702,146.19
1700.922,146.19
1701.062,146.19
1701.102,146.18
1701.402,146.18
1701.442,146.17
1701.722,146.17
1701.802,146.16
1702.042,146.16
1702.162,146.16
1702.222,146.15
1702.522,146.15
1702.542,146.14
1702.842,146.14
1702.902,146.13
1703.162,146.13
1703.282,146.12
1703.482,146.12
1703.622,146.12
1703.662,146.11
1703.962,146.11
1704.022,146.1
1704.282,146.1
1704.382,146.09
1704.602,146.09
1704.742,146.09
1704.782,146.08
1705.082,146.08
1705.122,146.07
1705.402,146.07
1705.502,146.06
1705.722,146.06
1705.842,146.06
1705.902,146.05
1706.202,146.05
1706.242,146.04
1706.522,146.04
1706.602,146.03
1706.842,146.03
1706.962,146.03
1707.022,146.02
1707.322,146.02
1707.362,146.01
1707.642,146.01
1707.722,146
1707.962,146
1708.082,146
1708.142,145.99
1708.442,145.99
1708.482,145.98
1708.762,145.98
1708.842,145.97
1709.082,145.97
1709.202,145.97
1709.262,145.96
1709.562,145.96
1709.602,145.95
1709.882,145.95
1709.962,145.94
1710.202,145.94
1710.322,145.94
1710.382,145.93
1710.682,145.93
1710.722,145.92
1711.002,145.92
1711.082,145.91
1711.322,145.91
1711.442,145.91
1711.502,145.9
1711.802,145.9
1711.842,145.89
1712.122,145.89
1712.222,145.88
1712.442,145.88
1712.582,145.88
1712.622,145.87
1712.922,145.87
1712.962,145.86
1713.242,145.86
1713.342,145.85
1713.562,145.85
1713.702,145.85
1713.742,145.84
1714.042,145.84
1714.102,145.83
1714.362,145.83
1714.482,145.82
1714.542,145.82
1714.842,145.82
1714.862,145.81
1715.162,145.81
1715.242,145.8
1715.482,145.8
1715.602,145.8
1715.662,145.79
1715.962,145.79
1716.002,145.78
1716.282,145.78
1716.382,145.77
1716.602,145.77
1716.742,145.77
1716.782,145.76
1717.082,145.76
1717.142,145.75
1717.402,145.75
1717.522,145.74
1717.582,145.74
1717.882,145.74
1717.902,145.73
1718.202,145.73
1718.282,145.72
1718.522,145.72
1718.642,145.72
1718.702,145.71
1719.002,145.71
1719.042,145.7
1719.322,145.7
1719.422,145.69
1719.642,145.69
1719.782,145.69
1719.822,145.68
1720.122,145.68
1720.182,145.67
1720.442,145.67
1720.562,145.66
1720.622,145.66
1720.922,145.66
1720.962,145.65
1721.242,145.65
1721.342,145.64
1721.562,145.64
1721.702,145.64
1721.742,145.63
1722.042,145.63
1722.102,145.62
1722.362,145.62
1722.482,145.61
1722.542,145.61
1722.842,145.61
1722.882,145.6
1723.162,145.6
1723.262,145.59
1723.482,145.59
1723.622,145.59
1723.662,145.58
1723.962,145.58
1724.042,145.57
1724.282,145.57
1724.402,145.57
1724.462,145.56
1724.762,145.56
1724.802,145.55
1725.082,145.55
1725.202,145.54
1725.262,145.54
1725.562,145.54
1725.582,145.53
1725.882,145.53
1725.962,145.52
1726.202,145.52
1726.342,145.52
1726.382,145.51
1726.682,145.51
1726.742,145.5
1727.002,145.5
1727.122,145.5
1727.182,145.49
1727.482,145.49
1727.522,145.48
1727.802,145.48
1727.902,145.47
1727.982,145.47
1728.282,145.47
1728.302,145.46
1728.602,145.46
1728.682,145.45
1728.922,145.45
1729.062,145.45
1729.102,145.44
1729.402,145.44
1729.462,145.43
1729.722,145.43
1729.842,145.43
1729.902,145.42
1730.202,145.42
1730.262,145.41
1730.522,145.41
1730.642,145.4
1730.702,145.4
1731.002,145.4
1731.042,145.39
1731.322,145.39
1731.422,145.38
1731.502,145.38
1731.802,145.38
1731.822,145.37
1732.122,145.37
1732.222,145.36
1732.442,145.36
1732.582,145.36
1732.622,145.35
1732.922,145.35
1733.002,145.34
1733.242,145.34
1733.382,145.34
1733.422,145.33
1733.722,145.33
1733.782,145.32
1734.042,145.32
1734.162,145.32
1734.222,145.31
1734.522,145.31
1734.582,145.3
1734.842,145.3
1734.962,145.3
1735.022,145.29
1735.322,145.29
1735.362,145.28
1735.642,145.28
1735.762,145.27
1735.822,145.27
1736.122,145.27
1736.162,145.26
1736.442,145.26
1736.562,145.25
1736.622,145.25
1736.922,145.25
1736.962,145.24
1737.242,145.24
1737.362,145.23
1737.422,145.23
1737.722,145.23
1737.762,145.22
1738.042,145.22
1738.142,145.21
1738.222,145.21
1738.522,145.21
1738.542,145.2
1738.842,145.2
1738.942,145.19
1739.022,145.19
1739.322,145.19
1739.342,145.18
1739.642,145.18
1739.742,145.17
1739.822,145.17
1740.122,145.17
1740.142,145.16
1740.442,145.16
1740.542,145.15
1740.622,145.15
1740.922,145.15
1740.942,145.14
1741.242,145.14
1741.342,145.13
1741.422,145.13
1741.722,145.13
1741.742,145.12
1742.042,145.12
1742.142,145.11
1742.222,145.11
1742.522,145.11
1742.562,145.1
1742.842,145.1
1742.962,145.09
1743.022,145.09
1743.322,145.09
1743.362,145.08
1743.642,145.08
1743.762,145.07
1743.822,145.07
1744.122,145.07
1744.162,145.06
1744.442,145.06
1744.562,145.05
1744.622,145.05
1744.922,145.05
1744.982,145.04
1745.242,145.04
1745.362,145.04
1745.422,145.03
1745.722,145.03
1745.782,145.02
1746.042,145.02
1746.162,145.02
1746.222,145.01
1746.522,145.01
1746.602,145
1746.842,145
1746.982,145
1747.022,144.99
1747.322,144.99
1747.402,144.98
1747.642,144.98
1747.782,144.98
1747.822,144.97
1748.122,144.97
1748.222,144.96
1748.302,144.96
1748.602,144.96
1748.622,144.95
1748.922,144.95
1749.042,144.94
1749.102,144.94
1749.402,144.94
1749.442,144.93
1749.722,144.93
1749.842,144.92
1749.902,144.92
1750.202,144.92
1750.262,144.91
1750.522,144.91
1750.642,144.91
1750.702,144.9
1751.002,144.9
1751.082,144.89
1751.322,144.89
1751.462,144.89
1751.502,144.88
1751.802,144.88
1751.902,144.87
1751.982,144.87
1752.282,144.87
1752.302,144.86
1752.602,144.86
1752.722,144.85
1752.782,144.85
1753.082,144.85
1753.122,144.84
1753.402,144.84
1753.522,144.84
1753.582,144.83
1753.882,144.83
1753.962,144.82
1754.202,144.82
1754.342,144.82
1754.382,144.81
1754.682,144.81
1754.782,144.8
1754.862,144.8
1755.162,144.8
1755.182,144.79
1755.482,144.79
1755.602,144.78
1755.662,144.78
1755.962,144.78
1756.022,144.77
1756.282,144.77
1756.402,144.77
1756.462,144.76
1756.762,144.76
1756.842,144.75
1756.942,144.75
1757.242,144.75
1757.262,144.74
1757.562,144.74
1757.682,144.73
1757.742,144.73
1758.042,144.73
1758.102,144.72
1758.362,144.72
1758.482,144.72
1758.542,144.71
1758.842,144.71
1758.922,144.7
1759.022,144.7
1759.322,144.7
1759.342,144.69
1759.642,144.69
1759.762,144.68
1759.822,144.68
1760.122,144.68
1760.182,144.67
1760.442,144.67
1760.582,144.67
1760.622,144.66
1760.922,144.66
1761.002,144.65
1761.102,144.65
1761.402,144.65
1761.422,144.64
1761.722,144.64
1761.842,144.63
1761.902,144.63
1762.202,144.63
1762.262,144.62
1762.522,144.62
1762.662,144.62
1762.702,144.61
1763.002,144.61
1763.102,144.6
1763.182,144.6
1763.482,144.6
1763.522,144.59
1763.802,144.59
1763.922,144.59
1763.982,144.58
1764.282,144.58
1764.362,144.57
1764.462,144.57
1764.762,144.57
1764.802,144.56
1765.082,144.56
1765.202,144.56
1765.262,144.55
1765.562,144.55
1765.642,144.54
1765.742,144.54
1766.042,144.54
1766.062,144.53
1766.362,144.53
1766.482,144.52
1766.542,144.52
1766.842,144.52
1766.902,144.51
1767.162,144.51
1767.302,144.51
1767.342,144.5
1767.642,144.5
1767.762,144.49
1767.822,144.49
1768.122,144.49
1768.182,144.48
1768.442,144.48
1768.582,144.48
1768.622,144.47
1768.922,144.47
1769.022,144.46
1769.102,144.46
1769.402,144.46
1769.462,144.45
1769.722,144.45
1769.862,144.45
1769.902,144.44
1770.202,144.44
1770.302,144.43
1770.382,144.43
1770.682,144.43
1770.742,144.42
1771.002,144.42
1771.142,144.42
1771.182,144.41
1771.482,144.41
1771.582,144.4
1771.662,144.4
1771.962,144.4
1772.022,144.39
1772.282,144.39
1772.422,144.39
1772.462,144.38
1772.762,144.38
1772.882,144.37
1772.942,144.37
1773.242,144.37
1773.302,144.36
1773.422,144.36
1773.722,144.36
1773.742,144.35
1774.042,144.35
1774.162,144.34
1774.222,144.34
1774.522,144.34
1774.602,144.33
1774.702,144.33
1775.002,144.33
1775.022,144.32
1775.322,144.32
1775.442,144.32
1775.502,144.31
1775.802,144.31
1775.882,144.3
1775.982,144.3
1776.282,144.3
1776.322,144.29
1776.602,144.29
1776.742,144.29
1776.782,144.28
1777.082,144.28
1777.182,144.27
1777.262,144.27
1777.562,144.27
1777.622,144.26
1777.742,144.26
1778.042,144.26
1778.062,144.25
1778.362,144.25
1778.482,144.24
1778.542,144.24
1778.842,144.24
1778.922,144.23
1779.022,144.23
1779.322,144.23
1779.362,144.22
1779.642,144.22
1779.782,144.22
1779.822,144.21
1780.122,144.21
1780.222,144.2
1780.302,144.2
1780.602,144.2
1780.662,144.19
1780.782,144.19
1781.082,144.19
1781.102,144.18
1781.402,144.18
1781.522,144.18
1781.582,144.17
1781.882,144.17
1781.982,144.16
1782.062,144.16
1782.362,144.16
1782.422,144.15
1782.682,144.15
1782.822,144.15
1782.862,144.14
1783.162,144.14
1783.282,144.13
1783.342,144.13
1783.642,144.13
1783.722,144.12
1783.822,144.12
1784.122,144.12
1784.162,144.11
1784.442,144.11
1784.582,144.11
1784.622,144.1
1784.922,144.1
1785.042,144.09
1785.102,144.09
1785.402,144.09
1785.482,144.08
1785.582,144.08
1785.882,144.08
1785.922,144.07
1786.202,144.07
1786.342,144.07
1786.382,144.06
1786.682,144.06
1786.802,144.05
1786.862,144.05
1787.162,144.05
1787.262,144.04
1787.342,144.04
1787.642,144.04
1787.702,144.03
1787.822,144.03
1788.122,144.03
1788.142,144.02
1788.442,144.02
1788.562,144.02
1788.622,144.01
1788.922,144.01
1789.022,144
1789.102,144
1789.402,144
1789.462,143.99
1789.582,143.99
1789.882,143.99
1789.922,143.98
1790.202,143.98
1790.342,143.98
1790.382,143.97
1790.682,143.97
1790.802,143.96
1790.862,143.96
1791.162,143.96
1791.242,143.95
1791.342,143.95
1791.642,143.95
1791.702,143.94
1791.822,143.94
1792.122,143.94
1792.142,143.93
1792.442,143.93
1792.562,143.93
1792.622,143.92
1792.922,143.92
1793.042,143.91
1793.102,143.91
1793.402,143.91
1793.482,143.9
1793.582,143.9
1793.882,143.9
1793.942,143.89
1794.062,143.89
1794.362,143.89
1794.382,143.88
1794.682,143.88
1794.802,143.88
1794.862,143.87
1795.162,143.87
1795.282,143.86
1795.342,143.86
1795.642,143.86
1795.722,143.85
1795.822,143.85
1796.122,143.85
1796.182,143.84
1796.302,143.84
1796.602,143.84
1796.622,143.83
1796.922,143.83
1797.062,143.83
1797.102,143.82
1797.402,143.82
1797.522,143.82
1797.582,143.81
1797.882,143.81
1797.982,143.8
1798.062,143.8
1798.362,143.8
1798.442,143.79
1798.542,143.79
1798.842,143.79
1798.902,143.78
1799.022,143.78
1799.322,143.78
1799.342,143.77
1799.642,143.77
1799.782,143.77
1799.822,143.76
1800.122,143.76
1800.242,143.76
1800.302,143.75
1800.602,143.75
1800.702,143.74
1800.782,143.74
1801.082,143.74
1801.162,143.73
1801.262,143.73
1801.562,143.73
1801.622,143.72
1801.742,143.72
1802.042,143.72
1802.082,143.71
1802.362,143.71
1802.502,143.71
1802.542,143.7
1802.842,143.7
1802.962,143.7
1803.022,143.69
1803.322,143.69
1803.442,143.68
1803.502,143.68
1803.802,143.68
1803.902,143.67
1803.982,143.67
1804.282,143.67
1804.362,143.66
1804.462,143.66
1804.762,143.66
1804.822,143.65
1804.942,143.65
1805.242,143.65
1805.282,143.64
1805.422,143.64
1805.722,143.64
1805.742,143.63
1806.042,143.63
1806.182,143.63
1806.222,143.62
1806.522,143.62
1806.642,143.62
1806.702,143.61
1807.002,143.61
1807.122,143.6
1807.182,143.6
1807.482,143.6
1807.582,143.59
1807.662,143.59
1807.962,143.59
1808.042,143.58
1808.142,143.58
1808.442,143.58
1808.502,143.57
1808.622,143.57
1808.922,143.57
1808.962,143.56
1809.102,143.56
1809.402,143.56
1809.422,143.55
1809.722,143.55
1809.862,143.55
1809.902,143.54
1810.202,143.54
1810.342,143.54
1810.382,143.53
1810.682,143.53
1810.802,143.53
1810.862,143.52
1811.162,143.52
1811.282,143.51
1811.342,143.51
1811.642,143.51
1811.742,143.5
1811.822,143.5
1812.122,143.5
1812.222,143.49
1812.302,143.49
1812.602,143.49
1812.682,143.48
1812.782,143.48
1813.082,143.48
1813.142,143.47
1813.262,143.47
1813.562,143.47
1813.622,143.46
1813.742,143.46
1814.042,143.46
1814.082,143.45
1814.222,143.45
1814.522,143.45
1814.542,143.44
1814.702,143.44
1815.002,143.44
1815.022,143.43
1815.322,143.43
1815.462,143.43
1815.502,143.42
1815.802,143.42
1815.942,143.42
1815.982,143.41
1816.282,143.41
1816.402,143.41
1816.462,143.4
1816.762,143.4
1816.882,143.4
1816.942,143.39
1817.242,143.39
1817.362,143.38
1817.422,143.38
1817.722,143.38
1817.842,143.37
1817.902,143.37
1818.202,143.37
1818.302,143.36
1818.382,143.36
1818.682,143.36
1818.782,143.35
1818.862,143.35
1819.162,143.35
1819.242,143.34
1819.342,143.34
1819.642,143.34
1819.722,143.33
1819.822,143.33
1820.122,143.33
1820.202,143.32
1820.302,143.32
1820.602,143.32
1820.662,143.31
1820.782,143.31
1821.082,143.31
1821.142,143.3
1821.262,143.3
1821.562,143.3
1821.622,143.29
1821.742,143.29
1822.042,143.29
1822.082,143.28
1822.222,143.28
1822.522,143.28
1822.562,143.27
1822.702,143.27
1823.002,143.27
1823.042,143.26
1823.182,143.26
1823.482,143.26
1823.522,143.25
1823.662,143.25
1823.962,143.25
1824.002,143.24
1824.142,143.24
1824.442,143.24
1824.482,143.23
1824.622,143.23
1824.922,143.23
1824.942,143.22
1825.102,143.22
1825.402,143.22
1825.422,143.21
1825.582,143.21
1825.882,143.21
1825.902,143.2
1826.062,143.2
1826.362,143.2
1826.382,143.19
1826.542,143.19
1826.842,143.19
1826.862,143.18
1827.022,143.18
1827.322,143.18
1827.342,143.17
1827.502,143.17
1827.802,143.17
1827.822,143.16
1827.982,143.16
1828.282,143.16
1828.302,143.15
1828.462,143.15
1828.762,143.15
1828.782,143.14
1828.942,143.14
1829.242,143.14
1829.262,143.13
1829.422,143.13
1829.722,143.13
1829.762,143.12
1829.902,143.12
1830.202,143.12
1830.242,143.11
1830.382,143.11
1830.682,143.11
1830.722,143.1
1830.862,143.1
1831.162,143.1
1831.202,143.09
1831.342,143.09
1831.642,143.09
1831.682,143.08
1831.822,143.08
1832.122,143.08
1832.182,143.07
1832.302,143.07
1832.602,143.07
1832.662,143.06
1832.782,143.06
1833.082,143.06
1833.142,143.05
1833.262,143.05
1833.562,143.05
1833.622,143.04
1833.742,143.04
1834.042,143.04
1834.122,143.03
1834.222,143.03
1834.522,143.03
1834.602,143.02
1834.702,143.02
1835.002,143.02
1835.082,143.01
1835.182,143.01
1835.482,143.01
1835.582,143
1835.662,143
1835.962,143
1836.062,142.99
1836.142,142.99
1836.442,142.99
1836.562,142.98
1836.622,142.98
1836.922,142.98
1837.042,142.97
1837.102,142.97
1837.402,142.97
1837.522,142.97
1837.582,142.96
1837.882,142.96
1838.002,142.96
1838.062,142.95
1838.362,142.95
1838.502,142.95
1838.542,142.94
1838.842,142.94
1838.982,142.94
1839.022,142.93
1839.182,142.93
1839.482,142.93
1839.502,142.92
1839.662,142.92
1839.962,142.92
1840.002,142.91
1840.142,142.91
1840.442,142.91
1840.482,142.9
1840.622,142.9
1840.922,142.9
1840.982,142.89
1841.102,142.89
1841.402,142.89
1841.482,142.88
1841.582,142.88
1841.882,142.88
1841.962,142.87
1842.062,142.87
1842.362,142.87
1842.462,142.86
1842.542,142.86
1842.842,142.86
1842.962,142.85
1843.022,142.85
1843.322,142.85
1843.442,142.85
1843.502,142.84
1843.802,142.84
1843.922,142.84
1843.982,142.83
1844.282,142.83
1844.422,142.83
1844.462,142.82
1844.622,142.82
1844.922,142.82
1844.942,142.81
1845.102,142.81
1845.402,142.81
1845.442,142.8
1845.582,142.8
1845.882,142.8
1845.942,142.79
1846.062,142.79
1846.362,142.79
1846.442,142.78
1846.542,142.78
1846.842,142.78
1846.942,142.77
1847.022,142.77
1847.322,142.77
1847.442,142.76
1847.502,142.76
1847.802,142.76
1847.922,142.76
1847.982,142.75
1848.282,142.75
1848.422,142.75
1848.462,142.74
1848.622,142.74
1848.922,142.74
1848.942,142.73
1849.102,142.73
1849.402,142.73
1849.442,142.72
1849.582,142.72
1849.882,142.72
1849.942,142.71
1850.062,142.71
1850.362,142.71
1850.442,142.7
1850.542,142.7
1850.842,142.7
1850.942,142.69
1851.022,142.69
1851.322,142.69
1851.442,142.69
1851.502,142.68
1851.802,142.68
1851.942,142.68
1851.982,142.67
1852.142,142.67
1852.442,142.67
1852.462,142.66
1852.622,142.66
1852.922,142.66
1852.962,142.65
1853.102,142.65
1853.402,142.65
1853.482,142.64
1853.582,142.64
1853.882,142.64
1853.982,142.63
1854.062,142.63
1854.362,142.63
1854.482,142.62
1854.542,142.62
1854.842,142.62
1854.982,142.62
1855.022,142.61
1855.182,142.61
1855.482,142.61
1855.502,142.6
1855.662,142.6
1855.962,142.6
1856.002,142.59
1856.142,142.59
1856.442,142.59
1856.522,142.58
1856.622,142.58
1856.922,142.58
1857.022,142.57
1857.102,142.57
1857.402,142.57
1857.522,142.57
1857.582,142.56
1857.882,142.56
1858.022,142.56
1858.062,142.55
1858.222,142.55
1858.522,142.55
1858.562,142.54
1858.702,142.54
1859.002,142.54
1859.062,142.53
1859.182,142.53
1859.482,142.53
1859.582,142.52
1859.662,142.52
1859.962,142.52
1860.082,142.52
1860.142,142.51
1860.442,142.51
1860.582,142.51
1860.622,142.5
1860.782,142.5
1861.082,142.5
1861.122,142.49
1861.262,142.49
1861.562,142.49
1861.642,142.48
1861.742,142.48
1862.042,142.48
1862.142,142.47
1862.222,142.47
1862.522,142.47
1862.642,142.47
1862.702,142.46
1862.862,142.46
1863.162,142.46
1863.182,142.45
1863.342,142.45
1863.642,142.45
1863.702,142.44
1863.822,142.44
1864.122,142.44
1864.202,142.43
1864.302,142.43
1864.602,142.43
1864.722,142.42
1864.782,142.42
1865.082,142.42
1865.222,142.42
1865.262,142.41
1865.422,142.41
1865.722,142.41
1865.762,142.4
1865.902,142.4
1866.202,142.4
1866.282,142.39
1866.382,142.39
1866.682,142.39
1866.802,142.38
1866.862,142.38
1867.162,142.38
1867.302,142.38
1867.342,142.37
1867.502,142.37
1867.802,142.37
1867.842,142.36
1867.982,142.36
1868.282,142.36
1868.362,142.35
1868.462,142.35
1868.762,142.35
1868.882,142.34
1868.942,142.34
1869.242,142.34
1869.382,142.34
1869.422,142.33
1869.582,142.33
1869.882,142.33
1869.922,142.32
1870.062,142.32
1870.362,142.32
1870.442,142.31
1870.542,142.31
1870.842,142.31
1870.962,142.31
1871.022,142.3
1871.182,142.3
1871.482,142.3
1871.502,142.29
1871.662,142.29
1871.962,142.29
1872.022,142.28
1872.142,142.28
1872.442,142.28
1872.542,142.27
1872.622,142.27
1872.922,142.27
1873.062,142.27
1873.102,142.26
1873.262,142.26
1873.562,142.26
1873.602,142.25
1873.742,142.25
1874.042,142.25
1874.122,142.24
1874.222,142.24
1874.522,142.24
1874.642,142.24
1874.702,142.23
1874.862,142.23
1875.162,142.23
1875.182,142.22
1875.342,142.22
1875.642,142.22
1875.702,142.21
1875.822,142.21
1876.122,142.21
1876.242,142.2
1876.302,142.2
1876.602,142.2
1876.742,142.2
1876.782,142.19
1876.942,142.19
1877.242,142.19
1877.302,142.18
1877.422,142.18
1877.722,142.18
1877.822,142.17
1877.902,142.17
1878.202,142.17
1878.342,142.17
1878.382,142.16
1878.542,142.16
1878.842,142.16
1878.882,142.15
1879.022,142.15
1879.322,142.15
1879.422,142.14
1879.502,142.14
1879.802,142.14
1879.942,142.14
1879.982,142.13
1880.142,142.13
1880.442,142.13
1880.482,142.12
1880.622,142.12
1880.922,142.12
1881.022,142.11
1881.102,142.11
1881.402,142.11
1881.542,142.11
1881.582,142.1
1881.742,142.1
1882.042,142.1
1882.082,142.09
1882.222,142.09
1882.522,142.09
1882.622,142.08
1882.702,142.08
1883.002,142.08
1883.142,142.08
1883.182,142.07
1883.342,142.07
1883.642,142.07
1883.702,142.06
1883.822,142.06
1884.122,142.06
1884.242,142.05
1884.302,142.05
1884.462,142.05
1884.762,142.05
1884.782,142.04
1884.942,142.04
1885.242,142.04
1885.322,142.03
1885.422,142.03
1885.722,142.03
1885.842,142.02
1885.902,142.02
1886.062,142.02
1886.362,142.02
1886.382,142.01
1886.542,142.01
1886.842,142.01
1886.922,142
1887.022,142
1887.322,142
1887.442,142
1887.502,141.99
1887.662,141.99
1887.962,141.99
1888.002,141.98
1888.142,141.98
1888.442,141.98
1888.562,141.97
1888.622,141.97
1888.782,141.97
1889.082,141.97
1889.102,141.96
1889.262,141.96
1889.562,141.96
1889.642,141.95
1889.742,141.95
1890.042,141.95
1890.162,141.95
1890.222,141.94
1890.382,141.94
1890.682,141.94
1890.722,141.93
1890.862,141.93
1891.162,141.93
1891.262,141.92
1891.342,141.92
1891.502,141.92
1891.802,141.92
1891.822,141.91
1891.982,141.91
1892.282,141.91
1892.362,141.9
1892.462,141.9
1892.762,141.9
1892.882,141.9
1892.942,141.89
1893.102,141.89
1893.402,141.89
1893.462,141.88
1893.582,141.88
1893.882,141.88
1894.002,141.87
1894.062,141.87
1894.222,141.87
1894.522,141.87
1894.542,141.86
1894.702,141.86
1895.002,141.86
1895.102,141.85
1895.182,141.85
1895.482,141.85
1895.622,141.85
1895.662,141.84
1895.822,141.84
1896.122,141.84
1896.202,141.83
1896.302,141.83
1896.602,141.83
1896.722,141.83
1896.782,141.82
1896.942,141.82
1897.242,141.82
1897.302,141.81
1897.422,141.81
1897.722,141.81
1897.842,141.8
1897.902,141.8
1898.062,141.8
1898.362,141.8
1898.402,141.79
1898.542,141.79
1898.842,141.79
1898.962,141.78
1899.022,141.78
1899.182,141.78
1899.482,141.78
1899.502,141.77
1899.662,141.77
1899.962,141.77
1900.062,141.76
1900.142,141.76
1900.302,141.76
1900.602,141.76
1900.622,141.75
1900.782,141.75
1901.082,141.75
1901.162,141.74
1901.262,141.74
1901.562,141.74
1901.702,141.74
1901.742,141.73
1901.902,141.73
1902.202,141.73
1902.282,141.72
1902.382,141.72
1902.682,141.72
1902.822,141.72
1902.862,141.71
1903.022,141.71
1903.322,141.71
1903.402,141.7
1903.502,141.7
1903.802,141.7
1903.922,141.7
1903.982,141.69
1904.142,141.69
1904.442,141.69
1904.502,141.68
1904.622,141.68
1904.922,141.68
1905.042,141.68
1905.102,141.67
1905.262,141.67
1905.562,141.67
1905.622,141.66
1905.742,141.66
1906.042,141.66
1906.162,141.66
1906.222,141.65
1906.382,141.65
1906.682,141.65
1906.742,141.64
1906.862,141.64
1907.162,141.64
1907.282,141.64
1907.342,141.63
1907.502,141.63
1907.802,141.63
1907.862,141.62
1907.982,141.62
1908.282,141.62
1908.422,141.62
1908.462,141.61
1908.622,141.61
1908.922,141.61
1909.002,141.6
1909.102,141.6
1909.402,141.6
1909.542,141.6
1909.582,141.59
1909.742,141.59
1910.042,141.59
1910.122,141.58
1910.222,141.58
1910.522,141.58
1910.662,141.58
1910.702,141.57
1910.862,141.57
1911.162,141.57
1911.262,141.56
1911.342,141.56
1911.502,141.56
1911.802,141.56
1911.822,141.55
1911.982,141.55
1912.282,141.55
1912.382,141.54
1912.462,141.54
1912.622,141.54
1912.922,141.54
1912.962,141.53
1913.102,141.53
1913.402,141.53
1913.522,141.52
1913.582,141.52
1913.742,141.52
1914.042,141.52
1914.102,141.51
1914.222,141.51
1914.522,141.51
1914.642,141.51
1914.702,141.5
1914.862,141.5
1915.162,141.5
1915.242,141.49
1915.342,141.49
1915.642,141.49
1915.782,141.49
1915.822,141.48
1915.982,141.48
1916.282,141.48
1916.382,141.47
1916.462,141.47
1916.622,141.47
1916.922,141.47
1916.942,141.46
1917.102,141.46
1917.402,141.46
1917.522,141.45
1917.582,141.45
1917.742,141.45
1918.042,141.45
1918.082,141.44
1918.222,141.44
1918.522,141.44
1918.642,141.44
1918.702,141.43
1918.862,141.43
1919.162,141.43
1919.242,141.42
1919.342,141.42
1919.502,141.42
1919.802,141.42
1919.822,141.41
1919.982,141.41
1920.282,141.41
1920.382,141.4
1920.462,141.4
1920.622,141.4
1920.922,141.4
1920.962,141.39
1921.102,141.39
1921.402,141.39
1921.522,141.39
1921.582,141.38
1921.742,141.38
1922.042,141.38
1922.122,141.37
1922.222,141.37
1922.382,141.37
1922.682,141.37
1922.702,141.36
1922.862,141.36
1923.162,141.36
1923.282,141.35
1923.342,141.35
1923.502,141.35
1923.802,141.35
1923.862,141.34
1923.982,141.34
1924.282,141.34
1924.422,141.34
1924.462,141.33
1924.622,141.33
1924.922,141.33
1925.022,141.32
1925.102,141.32
1925.262,141.32
1925.562,141.32
1925.602,141.31
1925.742,141.31
1926.042,141.31
1926.162,141.31
1926.222,141.3
1926.382,141.3
1926.682,141.3
1926.762,141.29
1926.862,141.29
1927.022,141.29
1927.322,141.29
1927.342,141.28
1927.502,141.28
1927.802,141.28
1927.922,141.27
1927.982,141.27
1928.142,141.27
1928.442,141.27
1928.502,141.26
1928.622,141.26
1928.782,141.26
1929.082,141.26
1929.102,141.25
1929.262,141.25
1929.562,141.25
1929.682,141.24
1929.742,141.24
1929.902,141.24
1930.202,141.24
1930.262,141.23
1930.382,141.23
1930.542,141.23
1930.842,141.23
1930.862,141.22
1931.022,141.22
1931.322,141.22
1931.442,141.21
1931.502,141.21
1931.662,141.21
1931.962,141.21
1932.022,141.2
1932.142,141.2
1932.302,141.2
1932.602,141.2
1932.622,141.19
1932.782,141.19
1933.082,141.19
1933.202,141.18
1933.262,141.18
1933.422,141.18
1933.722,141.18
1933.802,141.17
1933.902,141.17
1934.062,141.17
1934.362,141.17
1934.382,141.16
1934.542,141.16
1934.842,141.16
1934.962,141.16
1935.022,141.15
1935.182,141.15
1935.482,141.15
1935.562,141.14
1935.662,141.14
1935.822,141.14
1936.122,141.14
1936.162,141.13
1936.302,141.13
1936.602,141.13
1936.742,141.13
1936.782,141.12
1936.942,141.12
1937.242,141.12
1937.342,141.11
1937.422,141.11
1937.582,141.11
1937.882,141.11
1937.942,141.1
1938.062,141.1
1938.222,141.1
1938.522,141.1
1938.542,141.09
1938.702,141.09
1939.002,141.09
1939.122,141.09
1939.182,141.08
1939.342,141.08
1939.642,141.08
1939.742,141.07
1939.822,141.07
1939.982,141.07
1940.282,141.07
1940.322,141.06
1940.462,141.06
1940.762,141.06
1940.902,141.06
1940.942,141.05
1941.102,141.05
1941.402,141.05
1941.522,141.04
1941.582,141.04
1941.742,141.04
1942.042,141.04
1942.122,141.03
1942.222,141.03
1942.382,141.03
1942.682,141.03
1942.722,141.02
1942.862,141.02
1943.162,141.02
1943.302,141.02
1943.342,141.01
1943.502,141.01
1943.802,141.01
1943.922,141
1943.982,141
1944.142,141
1944.442,141
1944.522,140.99
1944.622,140.99
1944.782,140.99
1945.082,140.99
1945.122,140.98
1945.262,140.98
1945.422,140.98
1945.722,140.98
1945.742,140.97
1945.902,140.97
1946.202,140.97
1946.322,140.97
1946.382,140.96
1946.542,140.96
1946.842,140.96
1946.942,140.95
1947.022,140.95
1947.182,140.95
1947.482,140.95
1947.542,140.94
1947.662,140.94
1947.822,140.94
1948.122,140.94
1948.162,140.93
1948.302,140.93
1948.602,140.93
1948.742,140.93
1948.782,140.92
1948.942,140.92
1949.242,140.92
1949.362,140.91
1949.422,140.91
1949.582,140.91
1949.882,140.91
1949.982,140.9
1950.062,140.9
1950.222,140.9
1950.522,140.9
1950.582,140.89
1950.702,140.89
1950.862,140.89
1951.162,140.89
1951.202,140.88
1951.342,140.88
1951.642,140.88
1951.782,140.88
1951.822,140.87
1951.982,140.87
1952.282,140.87
1952.402,140.87
1952.462,140.86
1952.622,140.86
1952.922,140.86
1953.022,140.85
1953.102,140.85
1953.262,140.85
1953.562,140.85
1953.642,140.84
1953.742,140.84
1953.902,140.84
1954.202,140.84
1954.242,140.83
1954.382,140.83
1954.542,140.83
1954.842,140.83
1954.862,140.82
1955.022,140.82
1955.322,140.82
1955.462,140.82
1955.502,140.81
1955.662,140.81
1955.962,140.81
1956.082,140.81
1956.142,140.8
1956.302,140.8
1956.602,140.8
1956.702,140.79
1956.782,140.79
1956.942,140.79
1957.242,140.79
1957.322,140.78
1957.422,140.78
1957.582,140.78
1957.882,140.78
1957.942,140.77
1958.062,140.77
1958.222,140.77
1958.522,140.77
1958.562,140.76
1958.702,140.76
1958.862,140.76
1959.162,140.76
1959.182,140.75
1959.342,140.75
1959.642,140.75
1959.782,140.75
1959.822,140.74
1959.982,140.74
1960.282,140.74
1960.402,140.74
1960.462,140.73
1960.622,140.73
1960.922,140.73
1961.042,140.72
1961.102,140.72
1961.262,140.72
1961.562,140.72
1961.662,140.71
1961.742,140.71
1961.902,140.71
1962.202,140.71
1962.282,140.7
1962.382,140.7
1962.542,140.7
1962.842,140.7
1962.902,140.69
1963.022,140.69
1963.182,140.69
1963.482,140.69
1963.522,140.68
1963.662,140.68
1963.822,140.68
1964.122,140.68
1964.142,140.67
1964.302,140.67
1964.462,140.67
1964.762,140.67
1964.782,140.66
1964.942,140.66
1965.242,140.66
1965.382,140.66
1965.422,140.65
1965.582,140.65
1965.882,140.65
1966.002,140.65
1966.062,140.64
1966.222,140.64
1966.522,140.64
1966.642,140.63
1966.702,140.63
1966.862,140.63
1967.162,140.63
1967.282,140.62
1967.342,140.62
1967.502,140.62
1967.802,140.62
1967.902,140.61
1967.982,140.61
1968.142,140.61
1968.442,140.61
1968.542,140.6
1968.622,140.6
1968.782,140.6
1969.082,140.6
1969.162,140.59
1969.262,140.59
1969.422,140.59
1969.722,140.59
1969.802,140.58
1969.902,140.58
1970.062,140.58
1970.362,140.58
1970.422,140.57
1970.542,140.57
1970.702,140.57
1971.002,140.57
1971.062,140.56
1971.182,140.56
1971.342,140.56
1971.642,140.56
1971.682,140.55
1971.822,140.55
1971.982,140.55
1972.282,140.55
1972.322,140.54
1972.462,140.54
1972.622,140.54
1972.922,140.54
1972.962,140.53
1973.102,140.53
1973.262,140.53
1973.562,140.53
1973.602,140.52
1973.742,140.52
1973.902,140.52
1974.202,140.52
1974.222,140.51
1974.382,140.51
1974.542,140.51
1974.842,140.51
1974.862,140.5
1975.022,140.5
1975.182,140.5
1975.482,140.5
1975.502,140.49
1975.662,140.49
1975.822,140.49
1976.122,140.49
1976.142,140.48
1976.302,140.48
1976.462,140.48
1976.762,140.48
1976.782,140.47
1976.942,140.47
1977.102,140.47
1977.402,140.47
1977.422,140.46
1977.582,140.46
1977.742,140.46
1978.042,140.46
1978.062,140.45
1978.222,140.45
1978.382,140.45
1978.682,140.45
1978.702,140.44
1978.862,140.44
1979.022,140.44
1979.322,140.44
1979.342,140.43
1979.502,140.43
1979.662,140.43
1979.962,140.43
1979.982,140.42
1980.142,140.42
1980.302,140.42
1980.602,140.42
1980.622,140.41
1980.782,140.41
1980.942,140.41
1981.242,140.41
1981.262,140.4
1981.422,140.4
1981.582,140.4
1981.882,140.4
1981.902,140.39
1982.062,140.39
1982.222,140.39
1982.522,140.39
1982.562,140.38
1982.702,140.38
1982.862,140.38
1983.162,140.38
1983.202,140.37
1983.342,140.37
1983.502,140.37
1983.802,140.37
1983.842,140.36
1983.982,140.36
1984.142,140.36
1984.442,140.36
1984.502,140.35
1984.622,140.35
1984.782,140.35
1985.082,140.35
1985.142,140.34
1985.262,140.34
1985.422,140.34
1985.722,140.34
1985.782,140.33
1985.902,140.33
1986.062,140.33
1986.362,140.33
1986.442,140.32
1986.542,140.32
1986.702,140.32
1987.002,140.32
1987.082,140.31
1987.182,140.31
1987.342,140.31
1987.642,140.31
1987.742,140.3
1987.822,140.3
1987.982,140.3
1988.282,140.3
1988.402,140.29
1988.462,140.29
1988.622,140.29
1988.922,140.29
1989.042,140.28
1989.102,140.28
1989.262,140.28
1989.562,140.28
1989.682,140.28
1989.742,140.27
1989.902,140.27
1990.202,140.27
1990.342,140.27
1990.382,140.26
1990.542,140.26
1990.842,140.26
1990.982,140.26
1991.022,140.25
1991.182,140.25
1991.342,140.25
1991.642,140.25
1991.662,140.24
1991.822,140.24
1991.982,140.24
1992.282,140.24
1992.322,140.23
1992.462,140.23
1992.622,140.23
1992.922,140.23
1992.982,140.22
1993.102,140.22
1993.262,140.22
1993.562,140.22
1993.642,140.21
1993.742,140.21
1993.902,140.21
1994.202,140.21
1994.302,140.2
1994.382,140.2
1994.542,140.2
1994.842,140.2
1994.962,140.19
1995.022,140.19
1995.182,140.19
1995.482,140.19
1995.602,140.19
1995.662,140.18
1995.822,140.18
1996.122,140.18
1996.262,140.18
1996.302,140.17
1996.462,140.17
1996.622,140.17
1996.922,140.17
1996.942,140.16
1997.102,140.16
1997.262,140.16
1997.562,140.16
1997.602,140.15
1997.742,140.15
1997.902,140.15
1998.202,140.15
1998.262,140.14
1998.382,140.14
1998.542,140.14
1998.842,140.14
1998.922,140.13
1999.022,140.13
1999.182,140.13
1999.482,140.13
1999.602,140.12
1999.662,140.12
1999.822,140.12
1999.982,140.12
