wavelength,alpha
400,-86.36
400.08,-86.41
400.28,-86.56
400.42,-86.65
400.62,-86.8
400.76,-86.89
400.96,-87.04
401.24,-87.23
401.34,-87.31
401.52,-87.43
401.72,-87.58
401.9,-87.7
402,-87.78
402.18,-87.9
402.46,-88.11
402.64,-88.23
402.74,-88.31
402.96,-88.46
403.24,-88.67
403.28,-88.69
403.6,-88.93
403.64,-88.95
403.96,-89.19
404.04,-89.24
404.18,-89.35
404.44,-89.53
404.66,-89.7
404.7,-89.72
404.88,-89.86
405.18,-90.07
405.4,-90.24
405.48,-90.29
405.74,-90.49
405.78,-90.51
406.12,-90.77
406.16,-90.79
406.46,-91.02
406.58,-91.1
406.68,-91.18
406.86,-91.31
407.16,-91.54
407.24,-91.59
407.42,-91.73
407.6,-91.86
407.78,-92
407.96,-92.13
408.14,-92.27
408.32,-92.4
408.5,-92.54
408.68,-92.67
408.86,-92.81
409.04,-92.94
409.36,-93.18
409.48,-93.28
409.58,-93.35
409.76,-93.49
410.02,-93.68
410.1,-93.75
410.44,-94
410.48,-94.04
410.78,-94.26
410.86,-94.33
411.12,-94.52
411.2,-94.59
411.38,-94.72
411.68,-94.96
411.86,-95.09
411.94,-95.16
412.12,-95.29
412.38,-95.5
412.52,-95.6
412.74,-95.78
412.88,-95.88
413.1,-96.06
413.24,-96.16
413.46,-96.34
413.56,-96.41
413.74,-96.56
413.88,-96.66
414.06,-96.81
414.3,-96.99
414.44,-97.11
414.68,-97.29
414.86,-97.44
415.06,-97.59
415.2,-97.71
415.4,-97.86
415.54,-97.98
415.74,-98.13
415.88,-98.25
416.04,-98.37
416.28,-98.57
416.44,-98.69
416.58,-98.81
416.84,-99.01
416.98,-99.13
417.2,-99.3
417.34,-99.42
417.56,-99.59
417.76,-99.76
417.88,-99.85
418.02,-99.97
418.24,-100.14
418.5,-100.36
418.62,-100.45
418.88,-100.67
419,-100.76
419.16,-100.9
419.28,-100.99
419.6,-101.26
419.72,-101.35
419.82,-101.44
420.06,-101.63
420.22,-101.77
420.52,-102.01
420.56,-102.05
420.76,-102.21
420.92,-102.35
421.12,-102.51
421.28,-102.65
421.48,-102.81
421.64,-102.95
421.84,-103.11
422.14,-103.37
422.16,-103.38
422.38,-103.57
422.52,-103.68
422.7,-103.84
423.04,-104.12
423.08,-104.16
423.36,-104.39
423.42,-104.45
423.76,-104.73
423.82,-104.79
423.96,-104.9
424.22,-105.13
424.44,-105.31
424.5,-105.37
424.72,-105.55
424.92,-105.73
425.14,-105.91
425.28,-106.04
425.44,-106.17
425.72,-106.42
425.8,-106.48
425.94,-106.61
426.18,-106.81
426.32,-106.94
426.48,-107.07
426.7,-107.27
426.88,-107.42
427.02,-107.55
427.2,-107.7
427.42,-107.9
427.6,-108.05
427.76,-108.2
427.94,-108.35
428.18,-108.57
428.28,-108.65
428.52,-108.87
428.8,-109.11
428.88,-109.19
429.16,-109.43
429.24,-109.51
429.44,-109.68
429.62,-109.85
429.72,-109.93
429.9,-110.1
430.12,-110.29
430.3,-110.46
430.52,-110.65
430.7,-110.82
430.82,-110.92
431.12,-111.2
431.24,-111.3
431.34,-111.4
431.56,-111.59
431.78,-111.8
431.9,-111.9
432.12,-112.11
432.26,-112.23
432.46,-112.42
432.62,-112.56
432.84,-112.77
432.98,-112.89
433.22,-113.12
433.36,-113.24
433.62,-113.49
433.78,-113.63
433.88,-113.73
434.04,-113.87
434.32,-114.14
434.48,-114.28
434.62,-114.42
434.78,-114.56
435.08,-114.85
435.12,-114.88
435.42,-115.17
435.6,-115.33
435.76,-115.49
435.96,-115.67
436.12,-115.83
436.34,-116.03
436.52,-116.21
436.56,-116.24
436.9,-116.57
436.94,-116.6
437.14,-116.8
437.4,-117.04
437.62,-117.26
437.64,-117.27
437.88,-117.51
438.16,-117.77
438.34,-117.95
438.44,-118.04
438.7,-118.3
438.76,-118.35
439.06,-118.65
439.1,-118.68
439.42,-119
439.48,-119.05
439.78,-119.35
439.92,-119.48
440.14,-119.7
440.32,-119.88
440.46,-120.01
440.66,-120.21
440.78,-120.33
440.96,-120.51
441.22,-120.77
441.26,-120.8
441.58,-121.12
441.72,-121.26
441.78,-121.32
442.08,-121.62
442.16,-121.7
442.48,-122.02
442.52,-122.06
442.72,-122.26
442.9,-122.44
443.2,-122.74
443.24,-122.79
443.52,-123.07
443.72,-123.27
443.92,-123.47
444.02,-123.58
444.16,-123.72
444.46,-124.02
444.56,-124.13
444.82,-124.39
444.96,-124.53
445.02,-124.6
445.32,-124.9
445.38,-124.97
445.66,-125.25
445.74,-125.34
445.96,-125.56
446.26,-125.88
446.44,-126.06
446.52,-126.15
446.74,-126.37
446.98,-126.63
447.16,-126.81
447.2,-126.86
447.4,-127.06
447.62,-127.3
447.8,-127.48
448,-127.7
448.16,-127.86
448.36,-128.08
448.5,-128.22
448.7,-128.44
448.84,-128.58
449,-128.76
449.3,-129.07
449.34,-129.12
449.58,-129.37
449.74,-129.55
450,-129.82
450.16,-130
450.26,-130.1
450.42,-130.28
450.64,-130.51
450.78,-130.67
451,-130.9
451.14,-131.06
451.34,-131.27
451.6,-131.56
451.68,-131.64
451.92,-131.91
452.1,-132.1
452.24,-132.26
452.42,-132.45
452.64,-132.7
452.82,-132.89
453.02,-133.12
453.2,-133.31
453.3,-133.43
453.56,-133.71
453.66,-133.83
454,-134.2
454.02,-134.23
454.26,-134.49
454.44,-134.7
454.58,-134.85
454.76,-135.06
454.98,-135.3
455.16,-135.51
455.3,-135.66
455.54,-135.94
455.68,-136.09
455.84,-136.28
456.12,-136.59
456.2,-136.69
456.48,-137
456.56,-137.1
456.82,-137.39
456.9,-137.49
457.16,-137.78
457.3,-137.95
457.48,-138.15
457.74,-138.45
457.82,-138.55
458,-138.75
458.2,-138.99
458.36,-139.17
458.56,-139.41
458.72,-139.59
458.92,-139.83
459.08,-140.01
459.32,-140.3
459.42,-140.41
459.66,-140.7
459.82,-140.88
460.1,-141.22
460.26,-141.4
460.32,-141.48
460.58,-141.78
460.74,-141.98
460.94,-142.21
461.06,-142.36
461.3,-142.64
461.46,-142.84
461.6,-143
461.9,-143.37
461.94,-143.41
462.24,-143.78
462.38,-143.94
462.48,-144.07
462.66,-144.28
462.9,-144.58
463.12,-144.84
463.22,-144.97
463.44,-145.23
463.62,-145.46
463.88,-145.77
464.06,-146
464.14,-146.09
464.4,-146.42
464.48,-146.51
464.78,-146.89
464.86,-146.98
465,-147.16
465.18,-147.38
465.36,-147.61
465.54,-147.83
465.72,-148.06
465.9,-148.28
466.22,-148.68
466.34,-148.84
466.44,-148.96
466.72,-149.31
466.8,-149.42
467.02,-149.69
467.32,-150.08
467.5,-150.3
467.54,-150.36
467.86,-150.76
467.9,-150.82
468.18,-151.17
468.36,-151.41
468.46,-151.53
468.64,-151.77
468.84,-152.02
468.98,-152.21
469.18,-152.46
469.32,-152.65
469.58,-152.98
469.72,-153.17
469.94,-153.45
470.14,-153.72
470.3,-153.92
470.4,-154.06
470.68,-154.42
470.78,-154.56
470.96,-154.79
471.24,-155.16
471.34,-155.3
471.58,-155.61
471.68,-155.75
471.88,-156.01
472.04,-156.23
472.24,-156.49
472.42,-156.74
472.56,-156.92
472.74,-157.17
472.94,-157.43
473.2,-157.79
473.28,-157.89
473.54,-158.25
473.76,-158.54
473.82,-158.63
474.06,-158.95
474.34,-159.34
474.36,-159.36
474.56,-159.64
474.74,-159.88
474.96,-160.19
475.14,-160.43
475.3,-160.66
475.48,-160.9
475.64,-161.13
475.92,-161.51
476,-161.63
476.2,-161.9
476.38,-162.16
476.6,-162.46
476.78,-162.72
476.9,-162.88
477.1,-163.17
477.24,-163.36
477.44,-163.65
477.68,-163.98
477.8,-164.16
478.06,-164.52
478.18,-164.7
478.32,-164.89
478.58,-165.27
478.76,-165.52
478.88,-165.7
479.06,-165.95
479.38,-166.42
479.4,-166.44
479.74,-166.94
479.76,-166.96
479.94,-167.23
480.18,-167.57
480.4,-167.9
480.48,-168.01
480.66,-168.27
480.94,-168.69
481.02,-168.8
481.26,-169.16
481.38,-169.33
481.68,-169.78
481.74,-169.86
482.04,-170.31
482.26,-170.64
482.34,-170.75
482.6,-171.14
482.78,-171.41
482.96,-171.68
483.1,-171.89
483.28,-172.16
483.52,-172.52
483.64,-172.71
483.86,-173.04
484.02,-173.28
484.24,-173.61
484.26,-173.65
484.6,-174.16
484.66,-174.26
484.94,-174.68
485,-174.78
485.26,-175.17
485.28,-175.21
485.5,-175.54
485.74,-175.92
485.9,-176.16
485.96,-176.26
486.12,-176.5
486.32,-176.82
486.48,-177.06
486.66,-177.35
486.8,-177.56
486.98,-177.85
487.1,-178.03
487.26,-178.29
487.38,-178.47
487.52,-178.7
487.76,-179.07
487.9,-179.3
488,-179.45
488.24,-179.84
488.34,-179.99
488.56,-180.35
488.66,-180.5
488.88,-180.86
489.04,-181.11
489.16,-181.31
489.42,-181.72
489.44,-181.76
489.6,-182.01
489.78,-182.31
489.94,-182.56
490.12,-182.86
490.26,-183.08
490.5,-183.48
490.56,-183.57
490.8,-183.97
490.94,-184.19
491.16,-184.56
491.22,-184.65
491.36,-184.89
491.56,-185.21
491.7,-185.45
491.88,-185.74
492.02,-185.98
492.18,-186.24
492.32,-186.48
492.48,-186.74
492.68,-187.08
492.9,-187.44
492.96,-187.55
493.18,-187.91
493.3,-188.12
493.5,-188.45
493.62,-188.66
493.76,-188.89
493.98,-189.27
494.12,-189.5
494.28,-189.78
494.46,-190.08
494.66,-190.43
494.74,-190.56
494.94,-190.91
495.12,-191.21
495.26,-191.46
495.38,-191.66
495.66,-192.15
495.78,-192.35
495.84,-192.46
496.08,-192.88
496.16,-193.01
496.34,-193.33
496.48,-193.57
496.66,-193.89
496.8,-194.13
497.08,-194.63
497.14,-194.73
497.42,-195.22
497.46,-195.3
497.64,-195.61
497.9,-196.08
498.04,-196.32
498.08,-196.4
498.32,-196.82
498.5,-197.15
498.6,-197.32
498.74,-197.58
498.9,-197.86
499.04,-198.12
499.2,-198.4
499.4,-198.77
499.62,-199.16
499.72,-199.35
499.84,-199.56
500,-199.85
500.16,-200.15
500.36,-200.51
500.52,-200.81
500.66,-201.06
500.82,-201.36
501.02,-201.72
501.14,-201.95
501.42,-202.46
501.48,-202.58
501.7,-202.98
501.76,-203.1
501.92,-203.39
502.12,-203.77
502.3,-204.1
502.44,-204.37
502.62,-204.7
502.78,-205.01
502.88,-205.19
503.04,-205.5
503.34,-206.06
503.42,-206.22
503.54,-206.44
503.74,-206.83
503.86,-207.05
504.08,-207.48
504.2,-207.7
504.32,-207.94
504.48,-208.24
504.72,-208.71
504.88,-209.01
505,-209.25
505.2,-209.63
505.34,-209.91
505.56,-210.33
505.74,-210.69
505.76,-210.72
505.98,-211.16
506.08,-211.35
506.26,-211.7
506.54,-212.26
506.6,-212.37
506.78,-212.73
507.02,-213.21
507.14,-213.44
507.22,-213.6
507.4,-213.96
507.66,-214.48
507.78,-214.72
507.98,-215.12
508.1,-215.36
508.16,-215.49
508.34,-215.85
508.62,-216.41
508.66,-216.5
508.94,-217.06
508.98,-217.15
509.22,-217.63
509.28,-217.76
509.46,-218.12
509.68,-218.58
509.84,-218.9
510.04,-219.32
510.16,-219.56
510.34,-219.94
510.46,-220.18
510.62,-220.52
510.72,-220.72
510.98,-221.27
511.08,-221.47
511.2,-221.73
511.4,-222.14
511.52,-222.4
511.68,-222.73
511.98,-223.37
512.14,-223.7
512.16,-223.75
512.38,-224.21
512.48,-224.43
512.7,-224.89
512.86,-225.24
513.06,-225.66
513.14,-225.84
513.4,-226.39
513.48,-226.57
513.72,-227.08
513.8,-227.26
513.96,-227.6
514.2,-228.13
514.24,-228.21
514.48,-228.74
514.58,-228.95
514.8,-229.44
514.9,-229.65
515.06,-230.01
515.2,-230.31
515.4,-230.76
515.58,-231.15
515.68,-231.38
515.9,-231.86
516.04,-232.18
516.16,-232.44
516.34,-232.85
516.5,-233.2
516.64,-233.52
516.82,-233.92
516.96,-234.24
517.22,-234.82
517.3,-235.01
517.52,-235.5
517.6,-235.69
517.88,-236.32
517.92,-236.42
518.12,-236.87
518.3,-237.29
518.46,-237.65
518.6,-237.98
518.82,-238.48
518.92,-238.72
519.04,-238.99
519.3,-239.6
519.38,-239.78
519.54,-240.16
519.68,-240.48
519.92,-241.05
520.06,-241.37
520.18,-241.66
520.4,-242.17
520.54,-242.51
520.7,-242.88
520.84,-243.22
521.02,-243.64
521.18,-244.03
521.28,-244.26
521.46,-244.7
521.68,-245.22
521.76,-245.42
522,-245.99
522.1,-246.24
522.24,-246.57
522.48,-247.16
522.64,-247.54
522.78,-247.89
522.98,-248.37
523.14,-248.77
523.2,-248.91
523.38,-249.35
523.64,-250
523.68,-250.09
523.98,-250.84
524.06,-251.03
524.3,-251.63
524.44,-251.98
524.56,-252.28
524.7,-252.63
524.94,-253.23
525.1,-253.63
525.12,-253.69
525.42,-254.44
525.52,-254.7
525.74,-255.25
525.78,-255.36
525.98,-255.86
526.18,-256.38
526.34,-256.78
526.52,-257.25
526.64,-257.55
526.78,-257.92
526.88,-258.17
527.14,-258.85
527.22,-259.05
527.44,-259.62
527.54,-259.89
527.72,-260.35
527.9,-260.83
528.04,-261.19
528.22,-261.67
528.36,-262.03
528.58,-262.62
528.64,-262.77
528.84,-263.3
528.98,-263.68
529.14,-264.1
529.28,-264.48
529.5,-265.06
529.62,-265.39
529.82,-265.92
529.98,-266.36
530.12,-266.73
530.28,-267.17
530.46,-267.65
530.6,-268.04
530.72,-268.36
530.9,-268.85
531.04,-269.24
531.22,-269.73
531.36,-270.12
531.58,-270.72
531.78,-271.28
531.96,-271.77
532,-271.89
532.24,-272.55
532.32,-272.78
532.48,-273.22
532.78,-274.07
532.84,-274.23
533.1,-274.97
533.12,-275.02
533.28,-275.48
533.48,-276.04
533.72,-276.73
533.86,-277.12
533.92,-277.3
534.08,-277.75
534.3,-278.39
534.4,-278.67
534.64,-279.36
534.72,-279.6
534.94,-280.23
535.12,-280.76
535.26,-281.16
535.36,-281.46
535.64,-282.27
535.78,-282.69
535.98,-283.27
536.14,-283.75
536.18,-283.86
536.42,-284.58
536.48,-284.75
536.78,-285.65
536.86,-285.88
537.06,-286.48
537.2,-286.9
537.42,-287.56
537.5,-287.81
537.74,-288.53
537.88,-288.95
537.92,-289.08
538.14,-289.74
538.36,-290.42
538.52,-290.9
538.56,-291.03
538.8,-291.76
538.94,-292.2
539.04,-292.5
539.28,-293.25
539.36,-293.49
539.56,-294.12
539.72,-294.61
539.9,-295.18
540.04,-295.61
540.26,-296.31
540.32,-296.49
540.54,-297.19
540.64,-297.5
540.94,-298.46
541.1,-298.96
541.16,-299.16
541.3,-299.6
541.46,-300.12
541.6,-300.56
541.88,-301.47
541.92,-301.59
542.1,-302.18
542.24,-302.63
542.42,-303.22
542.6,-303.8
542.76,-304.32
542.98,-305.05
543.08,-305.37
543.26,-305.97
543.42,-306.49
543.52,-306.83
543.74,-307.55
543.84,-307.89
544.04,-308.55
544.22,-309.16
544.36,-309.62
544.5,-310.1
544.66,-310.63
544.8,-311.11
545.08,-312.05
545.16,-312.33
545.28,-312.73
545.5,-313.48
545.62,-313.9
545.78,-314.44
546.06,-315.41
546.1,-315.54
546.32,-316.31
546.4,-316.58
546.7,-317.63
546.72,-317.69
546.94,-318.46
547.18,-319.3
547.26,-319.59
547.5,-320.43
547.62,-320.85
547.68,-321.07
547.84,-321.63
548.04,-322.35
548.18,-322.84
548.34,-323.42
548.54,-324.13
548.68,-324.64
548.94,-325.57
548.96,-325.65
549.18,-326.44
549.28,-326.81
549.48,-327.53
549.62,-328.05
549.78,-328.63
549.92,-329.15
550.08,-329.73
550.3,-330.55
550.44,-331.06
550.68,-331.96
550.72,-332.1
550.9,-332.78
551.06,-333.37
551.34,-334.42
551.38,-334.58
551.56,-335.25
551.74,-335.94
551.84,-336.31
552.14,-337.46
552.2,-337.68
552.36,-338.3
552.5,-338.83
552.68,-339.52
552.88,-340.3
552.96,-340.6
553.18,-341.46
553.38,-342.23
553.46,-342.55
553.7,-343.48
553.82,-343.96
553.98,-344.58
554.12,-345.14
554.36,-346.08
554.42,-346.32
554.7,-347.44
554.78,-347.75
555.02,-348.71
555.06,-348.88
555.34,-350
555.46,-350.48
555.52,-350.73
555.68,-351.37
555.98,-352.59
556,-352.68
556.22,-353.57
556.34,-354.07
556.6,-355.13
556.7,-355.55
556.9,-356.37
556.98,-356.71
557.16,-357.45
557.4,-358.45
557.46,-358.71
557.66,-359.54
557.82,-360.22
558,-360.97
558.1,-361.4
558.24,-361.99
558.42,-362.76
558.68,-363.86
558.72,-364.04
558.96,-365.06
559.16,-365.93
559.22,-366.18
559.38,-366.88
559.64,-368
559.7,-368.27
559.86,-368.96
560.1,-370.01
560.18,-370.37
560.4,-371.33
560.5,-371.78
560.64,-372.39
560.94,-373.73
561,-373.99
561.26,-375.16
561.38,-375.7
561.44,-375.96
561.6,-376.69
561.9,-378.04
562,-378.5
562.18,-379.31
562.24,-379.59
562.46,-380.59
562.6,-381.24
562.78,-382.06
562.88,-382.53
563.04,-383.26
563.26,-384.29
563.38,-384.84
563.62,-385.97
563.72,-386.43
563.88,-387.19
564.06,-388.03
564.2,-388.7
564.32,-389.26
564.56,-390.41
564.74,-391.26
564.82,-391.65
564.98,-392.41
565.26,-393.76
565.3,-393.96
565.5,-394.92
565.62,-395.51
565.88,-396.77
565.96,-397.17
566.08,-397.75
566.3,-398.84
566.46,-399.62
566.64,-400.52
566.72,-400.91
566.94,-402.01
567.06,-402.61
567.34,-404.01
567.48,-404.71
567.52,-404.92
567.68,-405.72
567.84,-406.54
568.06,-407.65
568.18,-408.27
568.32,-408.98
568.62,-410.52
568.64,-410.63
568.86,-411.76
568.98,-412.39
569.12,-413.11
569.4,-414.58
569.48,-414.99
569.68,-416.05
569.86,-416.99
569.94,-417.42
570.1,-418.26
570.38,-419.75
570.44,-420.08
570.58,-420.82
570.72,-421.58
570.9,-422.54
571.1,-423.63
571.24,-424.38
571.38,-425.15
571.64,-426.56
571.8,-427.44
571.98,-428.43
572.1,-429.09
572.16,-429.43
572.34,-430.42
572.52,-431.43
572.64,-432.09
572.84,-433.21
573.02,-434.23
573.22,-435.35
573.3,-435.81
573.46,-436.71
573.62,-437.63
573.76,-438.42
574.06,-440.14
574.14,-440.61
574.32,-441.64
574.46,-442.46
574.62,-443.38
574.86,-444.79
574.94,-445.25
575.08,-446.07
575.26,-447.13
575.36,-447.73
575.52,-448.67
575.68,-449.62
575.9,-450.94
576,-451.53
576.22,-452.85
576.32,-453.46
576.48,-454.42
576.76,-456.12
576.88,-456.86
576.96,-457.34
577.26,-459.18
577.28,-459.31
577.44,-460.29
577.74,-462.15
577.76,-462.28
577.94,-463.4
578.22,-465.15
578.26,-465.41
578.42,-466.41
578.58,-467.43
578.78,-468.69
579.02,-470.23
579.04,-470.35
579.26,-471.76
579.42,-472.79
579.58,-473.83
579.8,-475.26
579.98,-476.43
580.12,-477.34
580.16,-477.61
580.4,-479.18
580.6,-480.5
580.68,-481.04
580.82,-481.96
581,-483.16
581.16,-484.24
581.34,-485.44
581.58,-487.06
581.62,-487.34
581.76,-488.28
582.04,-490.19
582.16,-491.02
582.24,-491.56
582.52,-493.49
582.62,-494.19
582.82,-495.57
582.94,-496.41
583.18,-498.09
583.32,-499.07
583.36,-499.36
583.62,-501.19
583.74,-502.05
583.9,-503.18
584.1,-504.61
584.16,-505.05
584.36,-506.48
584.62,-508.36
584.7,-508.95
584.84,-509.96
585.1,-511.87
585.24,-512.89
585.3,-513.34
585.5,-514.81
585.6,-515.56
585.78,-516.89
586.06,-518.99
586.22,-520.19
586.3,-520.79
586.46,-522
586.58,-522.92
586.74,-524.13
586.96,-525.81
587.08,-526.74
587.22,-527.81
587.36,-528.9
587.62,-530.91
587.82,-532.48
587.96,-533.57
588.02,-534.05
588.2,-535.46
588.46,-537.52
588.56,-538.32
588.7,-539.44
588.94,-541.36
589,-541.84
589.24,-543.78
589.34,-544.59
589.54,-546.22
589.66,-547.2
589.86,-548.85
589.94,-549.5
590.2,-551.65
590.24,-551.99
590.42,-553.48
590.64,-555.32
590.86,-557.17
591.02,-558.53
591.12,-559.37
591.24,-560.4
591.48,-562.44
591.52,-562.79
591.7,-564.33
591.96,-566.58
592.08,-567.62
592.18,-568.5
592.34,-569.89
592.56,-571.82
592.66,-572.71
592.8,-573.94
593.08,-576.43
593.24,-577.87
593.28,-578.22
593.56,-580.74
593.6,-581.11
593.84,-583.28
593.94,-584.19
594.14,-586.02
594.34,-587.86
594.4,-588.42
594.62,-590.45
594.84,-592.5
594.9,-593.07
595.08,-594.75
595.2,-595.88
595.42,-597.96
595.54,-599.11
595.76,-601.2
595.96,-603.12
596.04,-603.9
596.16,-605.05
596.4,-607.38
596.62,-609.53
596.66,-609.93
596.92,-612.48
597,-613.28
597.14,-614.66
597.32,-616.46
597.58,-619.06
597.74,-620.67
597.76,-620.88
597.96,-622.9
598.22,-625.55
598.38,-627.2
598.48,-628.22
598.66,-630.08
598.84,-631.95
598.98,-633.41
599.18,-635.51
599.3,-636.77
599.44,-638.25
599.62,-640.16
599.8,-642.08
599.98,-644.01
600.06,-644.88
600.16,-645.95
600.42,-648.77
600.5,-649.65
600.66,-651.39
600.92,-654.25
600.96,-654.7
601.16,-656.91
601.42,-659.81
601.44,-660.04
601.7,-662.96
601.86,-664.77
601.92,-665.46
602.12,-667.73
602.3,-669.8
602.54,-672.56
602.56,-672.8
602.8,-675.58
602.96,-677.45
603.16,-679.8
603.32,-681.69
603.38,-682.41
603.6,-685.02
603.82,-687.66
603.96,-689.34
604.14,-691.52
604.16,-691.77
604.42,-694.93
604.6,-697.14
604.78,-699.36
604.86,-700.35
605,-702.09
605.26,-705.34
605.28,-705.6
605.46,-707.86
605.7,-710.9
605.82,-712.43
606.04,-715.25
606.2,-717.31
606.3,-718.61
606.54,-721.73
606.7,-723.82
606.72,-724.09
606.98,-727.51
607.16,-729.9
607.28,-731.5
607.5,-734.45
607.66,-736.61
607.72,-737.43
607.84,-739.05
608.04,-741.78
608.26,-744.8
608.44,-747.29
608.5,-748.13
608.64,-750.07
608.84,-752.87
609.04,-755.69
609.22,-758.24
609.38,-760.52
609.56,-763.1
609.66,-764.54
609.9,-768.02
609.98,-769.18
610.16,-771.81
610.38,-775.05
610.52,-777.12
610.68,-779.5
610.72,-780.1
611.02,-784.6
611.18,-787.02
611.32,-789.15
611.5,-791.9
611.66,-794.36
611.8,-796.53
611.98,-799.32
612.08,-800.88
612.2,-802.76
612.4,-805.91
612.62,-809.4
612.78,-811.96
612.88,-813.56
612.98,-815.17
613.16,-818.08
613.34,-821.01
613.5,-823.63
613.74,-827.59
613.88,-829.91
614.04,-832.58
614.12,-833.92
614.3,-836.95
614.54,-841.02
614.68,-843.41
614.8,-845.47
614.9,-847.19
615.12,-851
615.34,-854.84
615.48,-857.3
615.66,-860.48
615.8,-862.97
615.94,-865.47
616.14,-869.07
616.22,-870.51
616.36,-873.05
616.56,-876.7
616.72,-879.64
616.92,-883.34
617.08,-886.32
617.22,-888.94
617.4,-892.33
617.58,-895.75
617.68,-897.65
617.86,-901.1
618.06,-904.96
618.2,-907.68
618.38,-911.2
618.46,-912.77
618.66,-916.72
618.82,-919.9
618.96,-922.7
619.12,-925.92
619.32,-929.97
619.4,-931.6
619.66,-936.93
619.74,-938.58
619.94,-942.73
620.02,-944.4
620.28,-949.86
620.4,-952.4
620.6,-956.66
620.78,-960.53
620.88,-962.68
621.04,-966.15
621.24,-970.52
621.4,-974.04
621.54,-977.14
621.74,-981.6
621.9,-985.2
622,-987.45
622.22,-992.45
622.3,-994.28
622.52,-999.34
622.68,-1003.05
622.8,-1005.85
623.02,-1011.02
623.16,-1014.33
623.34,-1018.62
623.5,-1022.46
623.64,-1025.84
623.78,-1029.24
623.98,-1034.14
624.1,-1037.09
624.3,-1042.05
624.46,-1046.05
624.54,-1048.06
624.72,-1052.61
624.88,-1056.68
624.98,-1059.24
625.22,-1065.43
625.36,-1069.07
625.56,-1074.31
625.62,-1075.89
625.82,-1081.19
625.96,-1084.93
626.18,-1090.85
626.32,-1094.65
626.48,-1099.02
626.62,-1102.87
626.78,-1107.3
627.02,-1114.01
627.16,-1117.95
627.32,-1122.49
627.46,-1126.49
627.58,-1129.94
627.76,-1135.15
627.96,-1140.99
628.12,-1145.7
628.28,-1150.45
628.4,-1154.03
628.56,-1158.84
628.68,-1162.47
628.88,-1168.57
629.04,-1173.49
629.22,-1179.07
629.38,-1184.07
629.56,-1189.74
629.68,-1193.55
629.82,-1198.02
629.98,-1203.17
630.18,-1209.66
630.34,-1214.9
630.5,-1220.18
630.7,-1226.84
630.82,-1230.87
630.94,-1234.92
631.14,-1241.73
631.22,-1244.47
631.44,-1252.07
631.62,-1258.35
631.78,-1263.98
631.96,-1270.37
632.12,-1276.1
632.24,-1280.43
632.32,-1283.33
632.5,-1289.9
632.76,-1299.5
632.84,-1302.48
633.06,-1310.74
633.24,-1317.57
633.36,-1322.16
633.54,-1329.1
633.74,-1336.89
633.82,-1340.03
633.98,-1346.35
634.22,-1355.93
634.32,-1359.96
634.5,-1367.27
634.66,-1373.83
634.86,-1382.11
634.98,-1387.12
635.16,-1394.7
635.3,-1400.65
635.5,-1409.23
635.58,-1412.69
635.76,-1420.53
635.94,-1428.45
636.1,-1435.56
636.3,-1444.54
636.46,-1451.8
636.56,-1456.37
636.76,-1465.59
636.9,-1472.11
637.06,-1479.63
637.24,-1488.17
637.4,-1495.84
637.54,-1502.61
637.72,-1511.4
637.9,-1520.29
638.06,-1528.27
638.22,-1536.33
638.32,-1541.4
638.46,-1548.56
638.6,-1555.78
638.76,-1564.11
638.96,-1574.64
639.14,-1584.23
639.32,-1593.93
639.46,-1601.55
639.62,-1610.34
639.8,-1620.34
639.92,-1627.07
640.06,-1634.99
640.2,-1642.98
640.4,-1654.52
640.54,-1662.69
640.74,-1674.49
640.94,-1686.45
641.04,-1692.49
641.24,-1704.69
641.4,-1714.57
641.52,-1722.05
641.68,-1732.12
641.82,-1741.02
642,-1752.59
642.14,-1761.69
642.34,-1774.84
642.46,-1782.82
642.64,-1794.92
642.82,-1807.17
642.96,-1816.81
643.08,-1825.15
643.26,-1837.79
643.44,-1850.6
643.56,-1859.23
643.72,-1870.86
643.92,-1885.59
644.1,-1899.03
644.24,-1909.61
644.4,-1921.84
644.56,-1934.22
644.7,-1945.17
644.88,-1959.43
645.02,-1970.65
645.18,-1983.63
645.34,-1996.77
645.48,-2008.4
645.68,-2025.24
645.82,-2037.19
645.96,-2049.27
646.16,-2066.77
646.32,-2080.97
646.5,-2097.17
646.66,-2111.77
646.8,-2124.7
646.98,-2141.55
647.16,-2158.66
647.3,-2172.14
647.46,-2187.75
647.6,-2201.58
647.76,-2217.59
647.94,-2235.87
648.1,-2252.36
648.26,-2269.08
648.42,-2286.04
648.58,-2303.24
648.74,-2320.69
648.9,-2338.39
649.04,-2354.09
649.2,-2372.28
649.36,-2390.74
649.5,-2407.12
649.66,-2426.1
649.82,-2445.37
649.98,-2464.93
650.16,-2487.3
650.32,-2507.51
650.48,-2528.03
650.64,-2548.88
650.78,-2567.39
650.92,-2586.16
651.08,-2607.94
651.26,-2632.86
651.44,-2658.24
651.6,-2681.19
651.76,-2704.53
651.94,-2731.25
652.08,-2752.39
652.24,-2776.93
652.4,-2801.9
652.56,-2827.3
652.72,-2853.14
652.86,-2876.13
653.02,-2902.84
653.2,-2933.47
653.34,-2957.72
653.52,-2989.47
653.68,-3018.25
653.82,-3043.87
653.98,-3073.67
654.16,-3107.87
654.32,-3138.9
654.48,-3170.52
654.64,-3202.76
654.8,-3235.64
654.96,-3269.18
655.12,-3303.39
655.28,-3338.3
655.44,-3373.93
655.6,-3410.3
655.76,-3447.44
655.94,-3490.16
656.08,-3524.1
656.24,-3563.68
656.4,-3604.13
656.56,-3645.48
656.72,-3687.75
656.88,-3730.99
657.04,-3775.21
657.2,-3820.47
657.36,-3866.78
657.52,-3914.2
657.68,-3962.76
657.84,-4012.5
658,-4063.47
658.16,-4115.71
658.32,-4169.26
658.48,-4224.19
658.64,-4280.55
658.8,-4338.38
658.96,-4397.76
659.12,-4458.73
659.28,-4521.38
659.44,-4585.76
659.6,-4651.95
659.76,-4720.03
659.92,-4790.07
660.08,-4862.18
660.24,-4936.43
670.977,null
670.979,null
670.9929999999999,null
670.995,null
682.134,4998.21
682.294,4929.27
682.454,4862.26
682.614,4797.08
682.794,4725.87
682.954,4664.38
683.114,4604.5
683.274,4546.18
683.434,4489.36
683.594,4433.99
683.754,4380
683.914,4327.34
684.074,4275.98
684.234,4225.85
684.394,4176.92
684.554,4129.15
684.714,4082.49
684.874,4036.9
685.034,3992.35
685.194,3948.81
685.354,3906.23
685.514,3864.59
685.674,3823.86
685.834,3784.01
685.994,3745
686.154,3706.82
686.314,3669.44
686.454,3637.36
686.634,3596.96
686.814,3557.48
686.954,3527.39
687.114,3493.64
687.274,3460.56
687.434,3428.11
687.574,3400.24
687.734,3368.95
687.914,3334.46
688.054,3308.14
688.214,3278.58
688.354,3253.16
688.534,3221.08
688.694,3193.11
688.854,3165.64
688.994,3142
689.174,3112.15
689.334,3086.1
689.514,3057.34
689.654,3035.35
689.814,3010.62
689.974,2986.31
690.134,2962.4
690.294,2938.89
690.454,2915.77
690.614,2893.02
690.774,2870.64
690.934,2848.62
691.114,2824.27
691.254,2805.63
691.434,2782.03
691.614,2758.85
691.774,2738.58
691.934,2718.62
692.054,2703.85
692.234,2682.01
692.374,2665.27
692.574,2641.74
692.734,2623.23
692.874,2607.25
693.034,2589.24
693.194,2571.49
693.334,2556.17
693.494,2538.89
693.654,2521.85
693.834,2502.97
693.974,2488.49
694.154,2470.13
694.314,2454.05
694.494,2436.22
694.634,2422.54
694.794,2407.1
694.954,2391.87
695.114,2376.84
695.274,2362.01
695.414,2349.19
695.574,2334.72
695.734,2320.44
695.874,2308.09
696.074,2290.69
696.234,2276.97
696.394,2263.42
696.554,2250.04
696.714,2236.83
696.874,2223.78
697.034,2210.89
697.194,2198.16
697.334,2187.15
697.474,2176.25
697.654,2162.41
697.814,2150.26
697.954,2139.75
698.154,2124.92
698.294,2114.67
698.494,2100.21
698.634,2090.21
698.834,2076.1
698.954,2067.73
699.134,2055.31
699.274,2045.76
699.434,2034.96
699.574,2025.61
699.714,2016.35
699.914,2003.28
700.074,1992.95
700.274,1980.2
700.454,1968.87
700.614,1958.92
700.734,1951.52
700.874,1942.97
701.054,1932.09
701.234,1921.34
701.394,1911.89
701.514,1904.87
701.694,1894.44
701.794,1888.7
701.954,1879.59
702.174,1867.22
702.334,1858.33
702.494,1849.53
702.614,1842.99
702.814,1832.2
702.934,1825.79
703.094,1817.32
703.254,1808.93
703.394,1801.66
703.594,1791.38
703.734,1784.26
703.874,1777.2
704.054,1768.21
704.234,1759.32
704.434,1749.55
704.594,1741.82
704.714,1736.07
704.874,1728.47
705.054,1720
705.214,1712.55
705.414,1703.33
705.574,1696.04
705.654,1692.41
705.834,1684.32
706.014,1676.31
706.174,1669.26
706.374,1660.54
706.494,1655.35
706.654,1648.49
706.814,1641.69
706.974,1634.95
707.154,1627.44
707.294,1621.65
707.454,1615.09
707.654,1606.97
707.754,1602.94
707.914,1596.54
708.134,1587.83
708.274,1582.34
708.434,1576.12
708.594,1569.95
708.774,1563.07
708.914,1557.77
709.054,1552.5
709.214,1546.53
709.374,1540.61
709.514,1535.47
709.674,1529.64
709.854,1523.14
710.034,1516.7
710.154,1512.44
710.314,1506.8
710.494,1500.51
710.574,1497.73
710.794,1490.15
710.974,1484.01
711.134,1478.6
711.294,1473.23
711.474,1467.24
711.614,1462.62
711.754,1458.03
711.954,1451.53
712.054,1448.3
712.234,1442.53
712.434,1436.18
712.574,1431.77
712.774,1425.52
712.894,1421.8
713.014,1418.1
713.174,1413.2
713.414,1405.92
713.574,1401.12
713.694,1397.53
713.814,1393.97
713.974,1389.25
714.114,1385.15
714.314,1379.34
714.474,1374.73
714.694,1368.45
714.794,1365.61
714.954,1361.1
715.094,1357.18
715.214,1353.84
715.354,1349.97
715.574,1343.93
715.814,1337.41
715.954,1333.64
716.114,1329.36
716.294,1324.58
716.434,1320.89
716.594,1316.7
716.774,1312.02
716.894,1308.92
716.994,1306.35
717.154,1302.26
717.314,1298.2
717.554,1292.16
717.714,1288.17
717.854,1284.7
717.974,1281.74
718.134,1277.82
718.374,1271.99
718.434,1270.54
718.654,1265.26
718.814,1261.45
718.934,1258.61
719.154,1253.44
719.314,1249.71
719.494,1245.54
719.634,1242.32
719.774,1239.12
719.954,1235.03
720.074,1232.32
720.254,1228.28
720.434,1224.27
720.554,1221.61
720.754,1217.21
720.894,1214.15
721.094,1209.81
721.254,1206.37
721.374,1203.79
721.554,1199.96
721.734,1196.15
721.894,1192.79
722.014,1190.28
722.154,1187.37
722.354,1183.24
722.514,1179.96
722.674,1176.7
722.834,1173.46
722.974,1170.64
723.174,1166.64
723.334,1163.46
723.454,1161.09
723.574,1158.73
723.814,1154.04
723.834,1153.66
724.034,1149.78
724.214,1146.32
724.314,1144.41
724.554,1139.85
724.694,1137.21
724.894,1133.46
725.074,1130.11
725.234,1127.15
725.334,1125.31
725.574,1120.92
725.694,1118.74
725.794,1116.93
725.994,1113.33
726.214,1109.4
726.334,1107.27
726.534,1103.74
726.694,1100.94
726.814,1098.84
726.954,1096.41
727.094,1093.99
727.254,1091.24
727.354,1089.53
727.614,1085.11
727.774,1082.41
727.914,1080.06
728.074,1077.39
728.274,1074.07
728.374,1072.42
728.594,1068.81
728.654,1067.83
728.894,1063.93
729.034,1061.67
729.254,1058.15
729.394,1055.91
729.534,1053.69
729.714,1050.85
729.874,1048.34
729.934,1047.4
730.194,1043.36
730.354,1040.89
730.494,1038.74
730.674,1035.99
730.834,1033.56
730.914,1032.35
731.054,1030.24
731.194,1028.14
731.414,1024.86
731.534,1023.08
731.794,1019.25
731.934,1017.2
732.094,1014.87
732.214,1013.13
732.354,1011.11
732.514,1008.81
732.774,1005.1
732.814,1004.54
732.954,1002.55
733.114,1000.3
733.414,996.1
733.434,995.83
733.694,992.22
733.894,989.47
733.934,988.93
734.074,987.01
734.234,984.84
734.534,980.79
734.574,980.25
734.854,976.51
734.874,976.25
735.054,973.86
735.294,970.7
735.414,969.13
735.654,966.01
735.754,964.71
735.934,962.39
736.054,960.85
736.234,958.55
736.434,956.01
736.494,955.26
736.714,952.48
736.934,949.73
736.994,948.98
737.194,946.5
737.334,944.77
737.554,942.07
737.694,940.36
737.894,937.93
737.994,936.72
738.194,934.32
738.374,932.16
738.534,930.25
738.554,930.02
738.734,927.88
738.994,924.82
739.034,924.36
739.214,922.25
739.374,920.39
739.514,918.77
739.794,915.55
739.934,913.95
740.094,912.13
740.214,910.77
740.434,908.29
740.614,906.27
740.734,904.93
740.914,902.93
741.054,901.38
741.254,899.18
741.334,898.3
741.574,895.68
741.594,895.47
741.774,893.51
741.914,892
742.154,889.42
742.254,888.36
742.394,886.86
742.594,884.74
742.854,882.01
743.014,880.33
743.094,879.49
743.274,877.62
743.474,875.55
743.534,874.93
743.814,872.06
743.954,870.63
743.994,870.23
744.234,867.79
744.354,866.58
744.594,864.17
744.654,863.58
744.874,861.38
745.074,859.4
745.214,858.02
745.374,856.45
745.554,854.69
745.734,852.94
745.774,852.56
745.974,850.62
746.134,849.08
746.254,847.93
746.454,846.03
746.694,843.75
746.774,842.99
746.994,840.92
747.134,839.61
747.254,838.49
747.494,836.26
747.614,835.16
747.714,834.23
747.934,832.21
747.994,831.67
748.174,830.02
748.314,828.75
748.574,826.4
748.634,825.87
748.874,823.71
748.994,822.64
749.234,820.51
749.414,818.92
749.474,818.4
749.594,817.34
749.834,815.24
750.054,813.33
750.094,812.99
750.254,811.6
750.434,810.05
750.574,808.85
750.714,807.66
751.014,805.11
751.074,804.6
751.314,802.58
751.414,801.74
751.614,800.07
751.734,799.08
751.874,797.91
752.114,795.93
752.294,794.45
752.334,794.13
752.594,792
752.654,791.52
752.894,789.57
753.034,788.45
753.114,787.8
753.414,785.4
753.514,784.6
753.674,783.33
753.794,782.39
753.954,781.12
754.214,779.08
754.274,778.62
754.414,777.52
754.694,775.35
754.774,774.73
754.974,773.2
755.034,772.73
755.314,770.59
755.394,769.99
755.534,768.92
755.674,767.86
755.954,765.76
756.134,764.41
756.254,763.51
756.314,763.07
756.514,761.58
756.774,759.66
756.794,759.52
757.074,757.46
757.134,757.03
757.394,755.13
757.474,754.56
757.654,753.25
757.854,751.82
758.054,750.38
758.114,749.96
758.294,748.67
758.534,746.97
758.694,745.85
758.734,745.56
759.014,743.6
759.154,742.62
759.194,742.35
759.474,740.4
759.594,739.58
759.674,739.02
759.834,737.92
760.134,735.87
760.194,735.47
760.334,734.51
760.474,733.57
760.734,731.81
760.814,731.28
760.974,730.2
761.214,728.6
761.274,728.21
761.534,726.48
761.614,725.96
761.774,724.9
761.934,723.85
762.194,722.16
762.354,721.12
762.534,719.95
762.574,719.7
762.734,718.66
762.874,717.77
763.054,716.61
763.294,715.09
763.354,714.7
763.534,713.56
763.694,712.56
763.874,711.42
764.014,710.55
764.234,709.17
764.314,708.68
764.474,707.68
764.634,706.7
764.834,705.46
765.054,704.11
765.134,703.63
765.374,702.16
765.514,701.32
765.594,700.83
765.774,699.74
766.054,698.06
766.174,697.35
766.374,696.15
766.414,695.92
766.554,695.08
766.774,693.78
766.874,693.2
767.094,691.9
767.294,690.73
767.414,690.04
767.514,689.45
767.714,688.29
767.854,687.49
767.994,686.68
768.274,685.07
768.314,684.85
768.474,683.93
768.754,682.34
768.814,682.01
768.954,681.21
769.194,679.87
769.294,679.3
769.534,677.96
769.674,677.19
769.754,676.74
769.954,675.63
770.194,674.31
770.374,673.32
770.394,673.22
770.634,671.9
770.814,670.93
770.914,670.38
771.134,669.19
771.234,668.66
771.374,667.9
771.594,666.72
771.674,666.3
771.934,664.91
771.994,664.6
772.174,663.64
772.314,662.9
772.594,661.43
772.674,661.02
772.814,660.28
773.054,659.03
773.154,658.52
773.294,657.79
773.534,656.55
773.594,656.25
773.774,655.32
773.934,654.51
774.174,653.28
774.294,652.68
774.474,651.76
774.694,650.66
774.754,650.35
774.954,649.35
775.174,648.25
775.234,647.96
775.494,646.66
775.514,646.57
775.794,645.18
775.834,644.99
776.014,644.1
776.294,642.73
776.314,642.64
776.514,641.66
776.774,640.4
776.834,640.12
776.994,639.34
777.154,638.58
777.294,637.9
777.474,637.05
777.594,636.47
777.834,635.33
777.914,634.96
778.154,633.82
778.294,633.17
778.414,632.6
778.634,631.57
778.754,631.02
778.974,629.99
779.034,629.72
779.214,628.88
779.494,627.6
779.514,627.5
779.754,626.4
779.894,625.77
780.134,624.67
780.194,624.4
780.454,623.23
780.594,622.6
780.694,622.15
780.934,621.07
781.054,620.54
781.254,619.64
781.274,619.56
781.534,618.4
781.674,617.79
781.774,617.34
781.974,616.47
782.134,615.76
782.294,615.07
782.414,614.54
782.674,613.41
782.854,612.64
782.954,612.2
783.114,611.52
783.254,610.91
783.394,610.32
783.514,609.8
783.694,609.04
783.954,607.93
784.074,607.43
784.214,606.83
784.354,606.25
784.514,605.57
784.774,604.49
784.794,604.4
785.094,603.15
785.154,602.91
785.314,602.24
785.454,601.67
785.634,600.92
785.834,600.1
785.934,599.7
786.074,599.12
786.354,597.98
786.534,597.26
786.554,597.17
786.794,596.21
786.874,595.88
787.094,595
787.334,594.04
787.494,593.4
787.574,593.09
787.814,592.13
787.854,591.98
788.034,591.26
788.214,590.56
788.454,589.61
788.474,589.54
788.654,588.83
788.854,588.05
788.954,587.67
789.174,586.81
789.394,585.97
789.454,585.73
789.594,585.2
789.814,584.35
789.934,583.9
790.134,583.13
790.294,582.53
790.434,581.99
790.574,581.47
790.734,580.86
790.874,580.34
791.054,579.66
791.334,578.61
791.374,578.47
791.514,577.94
791.694,577.28
791.854,576.68
792.114,575.73
792.234,575.28
792.334,574.92
792.614,573.89
792.674,573.68
792.894,572.87
792.954,572.66
793.134,572
793.294,571.43
793.514,570.63
793.594,570.35
793.854,569.41
793.974,568.99
794.154,568.34
794.334,567.71
794.394,567.49
794.594,566.79
794.714,566.36
794.954,565.52
795.114,564.96
795.194,564.68
795.454,563.77
795.654,563.07
795.734,562.8
795.974,561.96
795.994,561.9
796.174,561.27
796.354,560.66
796.474,560.24
796.734,559.36
796.834,559.01
796.954,558.61
797.134,557.99
797.314,557.39
797.474,556.84
797.634,556.31
797.834,555.63
797.974,555.17
798.094,554.76
798.334,553.96
798.394,553.77
798.554,553.23
798.774,552.51
798.914,552.04
799.114,551.39
799.294,550.79
799.474,550.21
799.554,549.94
799.694,549.49
799.834,549.03
800.114,548.13
800.294,547.54
800.374,547.29
800.474,546.96
800.654,546.39
800.814,545.87
800.954,545.43
801.174,544.72
801.274,544.41
801.474,543.77
801.634,543.27
801.834,542.63
802.034,542.01
802.114,541.75
802.254,541.32
802.434,540.75
802.694,539.94
802.774,539.7
802.874,539.38
803.074,538.77
803.214,538.33
803.454,537.59
803.594,537.17
803.774,536.61
803.934,536.13
803.994,535.94
804.174,535.39
804.454,534.55
804.474,534.48
804.694,533.82
804.854,533.34
804.954,533.04
805.214,532.26
805.354,531.84
805.574,531.18
805.614,531.07
805.894,530.23
805.934,530.12
806.134,529.52
806.334,528.94
806.494,528.46
806.654,528
806.774,527.64
806.914,527.24
807.114,526.65
807.254,526.25
807.434,525.72
807.534,525.44
807.694,524.97
807.874,524.46
808.014,524.05
808.254,523.37
808.314,523.19
808.594,522.4
808.654,522.22
808.794,521.83
808.954,521.37
809.194,520.7
809.354,520.24
809.474,519.91
809.614,519.51
809.774,519.07
809.914,518.67
810.154,518.01
810.234,517.78
810.414,517.28
810.634,516.68
810.714,516.45
810.894,515.96
811.074,515.46
811.274,514.92
811.494,514.31
811.574,514.1
811.714,513.71
811.894,513.23
811.994,512.95
812.234,512.31
812.394,511.87
812.594,511.34
812.654,511.17
812.814,510.75
812.994,510.26
813.234,509.62
813.354,509.31
813.554,508.77
813.614,508.62
813.834,508.03
813.974,507.67
814.134,507.24
814.274,506.88
814.454,506.4
814.614,505.99
814.734,505.67
814.914,505.21
815.034,504.89
815.234,504.38
815.374,504.01
815.594,503.45
815.754,503.03
815.894,502.68
816.074,502.21
816.234,501.81
816.454,501.24
816.614,500.84
816.714,500.58
816.934,500.03
817.054,499.72
817.194,499.37
817.354,498.97
817.434,498.77
817.694,498.12
817.854,497.72
817.934,497.52
818.194,496.87
818.374,496.42
818.434,496.28
818.694,495.63
818.774,495.44
819.014,494.84
819.034,494.8
819.214,494.35
819.414,493.87
819.574,493.47
819.734,493.09
819.874,492.74
820.014,492.41
820.254,491.82
820.374,491.54
820.474,491.29
820.694,490.77
820.874,490.33
821.074,489.86
821.154,489.66
821.334,489.24
821.494,488.85
821.594,488.62
821.874,487.95
821.954,487.77
822.154,487.29
822.234,487.11
822.414,486.68
822.694,486.03
822.734,485.93
822.874,485.61
823.034,485.23
823.214,484.82
823.374,484.44
823.594,483.94
823.694,483.7
823.854,483.34
823.994,483.01
824.194,482.56
824.334,482.23
824.614,481.6
824.654,481.5
824.794,481.19
825.094,480.5
825.114,480.46
825.294,480.05
825.434,479.74
825.614,479.33
825.754,479.02
826.054,478.34
826.094,478.26
826.354,477.67
826.394,477.59
826.674,476.96
826.754,476.79
826.954,476.34
827.034,476.17
827.194,475.81
827.434,475.29
827.594,474.93
827.694,474.72
827.914,474.23
828.014,474.02
828.194,473.62
828.354,473.28
828.494,472.97
828.654,472.63
828.854,472.19
828.974,471.94
829.114,471.63
829.314,471.21
829.534,470.73
829.594,470.61
829.754,470.26
829.974,469.8
830.074,469.58
830.294,469.12
830.414,468.86
830.654,468.36
830.854,467.93
830.934,467.77
831.054,467.51
831.254,467.1
831.394,466.8
831.594,466.39
831.734,466.09
831.854,465.85
831.994,465.55
832.274,464.98
832.314,464.89
832.614,464.27
832.774,463.95
832.794,463.9
832.974,463.54
833.234,463
833.414,462.64
833.494,462.47
833.734,461.99
833.814,461.82
833.974,461.5
834.214,461.02
834.294,460.85
834.454,460.53
834.694,460.05
834.714,460.01
834.954,459.53
835.094,459.25
835.334,458.77
835.454,458.53
835.514,458.42
835.814,457.82
835.934,457.58
835.994,457.47
836.274,456.91
836.314,456.84
836.534,456.4
836.774,455.93
836.794,455.9
836.974,455.54
837.174,455.16
837.334,454.84
837.514,454.5
837.654,454.22
837.814,453.92
837.934,453.68
838.094,453.38
838.314,452.95
838.454,452.69
838.554,452.49
838.794,452.04
838.874,451.88
839.094,451.47
839.274,451.12
839.394,450.9
839.554,450.59
839.754,450.22
839.914,449.91
840.014,449.73
840.154,449.46
840.334,449.13
840.474,448.86
840.634,448.57
840.914,448.04
840.994,447.9
841.114,447.67
841.394,447.16
841.454,447.04
841.654,446.68
841.774,446.45
841.914,446.2
842.074,445.9
842.274,445.54
842.434,445.24
842.554,445.03
842.714,444.73
842.994,444.23
843.094,444.04
843.214,443.83
843.354,443.57
843.514,443.29
843.754,442.85
843.914,442.57
843.994,442.42
844.154,442.14
844.334,441.81
844.614,441.32
844.654,441.24
844.794,441
845.054,440.53
845.234,440.22
845.314,440.07
845.454,439.83
845.734,439.34
845.774,439.26
845.914,439.02
846.094,438.7
846.334,438.28
846.414,438.15
846.554,437.9
846.834,437.42
846.934,437.24
847.134,436.9
847.314,436.58
847.354,436.52
847.634,436.03
847.674,435.97
847.954,435.48
847.994,435.42
848.194,435.07
848.334,434.84
848.494,434.56
848.634,434.33
848.794,434.05
849.094,433.55
849.154,433.44
849.414,433.01
849.474,432.9
849.634,432.64
849.754,432.43
849.974,432.07
850.094,431.86
850.254,431.6
850.514,431.16
850.574,431.07
850.714,430.83
851.014,430.34
851.154,430.1
851.214,430.01
851.354,429.77
851.554,429.45
851.774,429.08
851.834,428.99
851.994,428.72
852.194,428.4
852.374,428.1
852.514,427.88
852.694,427.58
852.834,427.36
853.014,427.06
853.174,426.81
853.274,426.64
853.434,426.39
853.734,425.9
853.814,425.78
853.934,425.58
854.114,425.3
854.234,425.1
854.434,424.79
854.674,424.4
854.774,424.25
854.914,424.02
855.134,423.68
855.274,423.45
855.394,423.27
855.554,423.01
855.674,422.83
855.834,422.57
856.114,422.14
856.154,422.07
856.454,421.61
856.474,421.57
856.634,421.33
856.854,420.98
857.034,420.71
857.114,420.58
857.274,420.33
857.494,420
857.594,419.84
857.774,419.56
858.054,419.14
858.094,419.07
858.374,418.65
858.454,418.52
858.694,418.16
858.854,417.92
858.974,417.73
859.094,417.55
859.194,417.4
859.454,417.01
859.594,416.8
859.694,416.65
859.954,416.26
860.094,416.05
860.194,415.9
860.454,415.51
860.474,415.48
860.774,415.03
860.854,414.92
860.954,414.77
861.254,414.32
861.374,414.15
861.454,414.03
861.734,413.61
861.754,413.59
862.054,413.14
862.074,413.12
862.334,412.73
862.394,412.65
862.574,412.38
862.834,412.01
863.014,411.74
863.034,411.72
863.214,411.45
863.414,411.17
863.574,410.93
863.774,410.65
863.914,410.44
864.094,410.19
864.214,410.01
864.394,409.76
864.514,409.58
864.674,409.36
864.914,409.01
865.054,408.82
865.154,408.67
865.294,408.48
865.514,408.16
865.654,407.97
865.754,407.82
865.994,407.49
866.074,407.37
866.294,407.07
866.474,406.81
866.594,406.65
866.774,406.39
866.974,406.12
867.054,406
867.334,405.62
867.414,405.5
867.514,405.37
867.674,405.14
867.854,404.9
868.094,404.56
868.194,404.43
868.314,404.26
868.494,404.02
868.634,403.82
868.874,403.5
869.014,403.3
869.234,403.01
869.294,402.92
869.454,402.71
869.654,402.43
869.794,402.25
869.914,402.08
870.194,401.71
870.254,401.62
870.514,401.28
870.574,401.19
870.714,401.01
870.874,400.79
871.074,400.53
871.234,400.31
871.374,400.13
871.534,399.91
871.674,399.73
871.834,399.51
872.014,399.28
872.274,398.93
872.454,398.7
872.554,398.56
872.674,398.41
872.874,398.14
872.994,397.99
873.134,397.8
873.354,397.52
873.494,397.33
873.654,397.13
873.794,396.94
873.954,396.74
874.094,396.55
874.294,396.3
874.434,396.11
874.674,395.81
874.714,395.75
874.954,395.45
875.134,395.21
875.274,395.04
875.454,394.8
875.634,394.58
875.674,394.52
875.854,394.29
876.074,394.02
876.154,393.91
876.334,393.69
876.494,393.48
876.714,393.21
876.794,393.1
876.974,392.88
877.114,392.7
877.374,392.38
877.454,392.27
877.594,392.1
877.894,391.72
877.974,391.63
878.074,391.5
878.254,391.28
878.434,391.05
878.634,390.81
878.734,390.68
878.974,390.38
879.054,390.29
879.234,390.06
879.354,389.92
879.634,389.57
879.754,389.43
879.894,389.25
880.114,388.99
880.214,388.86
880.434,388.6
880.534,388.47
880.714,388.26
880.814,388.13
880.994,387.92
881.194,387.67
881.334,387.51
881.534,387.26
881.674,387.1
881.834,386.9
881.974,386.74
882.134,386.54
882.334,386.31
882.394,386.23
882.594,386
882.754,385.8
883.014,385.5
883.074,385.42
883.334,385.12
883.454,384.97
883.614,384.79
883.674,384.71
883.894,384.46
884.014,384.31
884.174,384.13
884.414,383.85
884.474,383.77
884.634,383.59
884.834,383.35
884.994,383.17
885.134,383
885.314,382.8
885.454,382.63
885.694,382.36
885.774,382.26
886.014,381.99
886.094,381.89
886.274,381.69
886.494,381.43
886.614,381.3
886.834,381.04
886.954,380.91
887.034,380.81
887.314,380.5
887.394,380.4
887.534,380.25
887.694,380.06
887.974,379.75
887.994,379.72
888.194,379.5
888.374,379.29
888.514,379.14
888.694,378.93
888.834,378.78
889.014,378.57
889.254,378.31
889.274,378.28
889.494,378.04
889.694,377.81
889.754,377.75
889.954,377.52
890.114,377.35
890.314,377.12
890.394,377.04
890.694,376.7
890.774,376.62
890.894,376.48
891.074,376.29
891.194,376.15
891.374,375.96
891.514,375.8
891.694,375.61
891.834,375.45
892.134,375.13
892.154,375.1
892.354,374.89
892.494,374.73
892.714,374.5
892.854,374.34
892.954,374.24
893.214,373.95
893.334,373.83
893.474,373.67
893.594,373.55
893.754,373.37
894.014,373.1
894.174,372.92
894.294,372.8
894.454,372.62
894.594,372.48
894.774,372.28
894.914,372.14
895.094,371.94
895.234,371.8
895.434,371.58
895.594,371.42
895.794,371.2
895.954,371.04
895.994,370.99
896.154,370.83
896.374,370.59
896.574,370.39
896.634,370.32
896.794,370.16
897.054,369.88
897.254,369.68
897.294,369.63
897.534,369.39
897.594,369.32
897.814,369.1
897.914,368.99
898.114,368.79
898.234,368.66
898.454,368.44
898.554,368.33
898.814,368.07
898.874,368
899.174,367.7
899.274,367.59
899.454,367.41
899.654,367.21
899.774,367.09
899.834,367.02
900.134,366.72
900.154,366.7
900.454,366.4
900.574,366.27
900.714,366.13
900.814,366.03
900.974,365.87
901.194,365.65
901.374,365.47
901.454,365.39
901.694,365.15
901.854,364.99
901.954,364.89
902.194,364.65
902.374,364.47
902.454,364.39
902.694,364.15
902.714,364.14
902.954,363.9
903.134,363.72
903.334,363.52
903.474,363.38
903.514,363.35
903.754,363.11
903.974,362.89
904.034,362.84
904.214,362.66
904.454,362.42
904.474,362.41
904.774,362.11
904.854,362.04
905.094,361.8
905.194,361.71
905.414,361.49
905.514,361.4
905.734,361.18
905.794,361.13
906.054,360.87
906.074,360.86
906.314,360.62
906.394,360.55
906.554,360.39
906.794,360.17
907.014,359.95
907.034,359.94
907.214,359.76
907.454,359.54
907.634,359.36
907.674,359.33
907.974,359.04
908.034,358.99
908.194,358.83
908.394,358.65
908.534,358.51
908.734,358.33
908.874,358.19
909.054,358.03
909.194,357.89
909.374,357.73
909.494,357.61
909.674,357.45
909.794,357.33
909.954,357.19
910.094,357.05
910.254,356.91
910.494,356.68
910.654,356.54
910.774,356.42
910.914,356.3
911.034,356.18
911.294,355.95
911.394,355.85
911.534,355.73
911.774,355.5
911.894,355.4
911.994,355.3
912.254,355.07
912.354,354.97
912.474,354.87
912.674,354.68
912.814,354.56
912.994,354.39
913.134,354.27
913.314,354.1
913.434,354
913.634,353.81
913.754,353.71
913.934,353.54
914.154,353.35
914.234,353.27
914.434,353.1
914.614,352.93
914.714,352.85
914.894,352.68
915.094,352.51
915.254,352.36
915.454,352.19
915.534,352.11
915.714,351.96
915.874,351.81
915.994,351.71
916.214,351.51
916.334,351.41
916.474,351.28
916.654,351.13
916.814,350.98
916.994,350.83
917.134,350.7
917.314,350.55
917.454,350.42
917.634,350.27
917.754,350.16
917.934,350.01
918.074,349.88
918.234,349.75
918.454,349.55
918.614,349.42
918.754,349.29
918.914,349.16
919.114,348.98
919.194,348.92
919.474,348.67
919.554,348.61
919.754,348.43
919.834,348.37
920.034,348.19
920.254,348.01
920.374,347.9
920.594,347.72
920.714,347.61
920.854,347.5
920.974,347.39
921.114,347.28
921.294,347.12
921.574,346.89
921.694,346.78
921.774,346.72
922.014,346.52
922.074,346.46
922.274,346.3
922.434,346.16
922.574,346.05
922.754,345.89
922.894,345.78
923.054,345.64
923.194,345.53
923.354,345.39
923.554,345.23
923.774,345.04
923.834,345
923.994,344.86
924.194,344.7
924.354,344.56
924.474,344.47
924.694,344.28
924.814,344.19
924.974,344.05
925.154,343.91
925.414,343.69
925.534,343.6
925.694,343.46
925.754,343.42
926.014,343.2
926.134,343.11
926.234,343.02
926.454,342.85
926.554,342.76
926.774,342.59
926.974,342.42
927.034,342.38
927.234,342.21
927.394,342.09
927.594,341.92
927.754,341.8
927.894,341.68
928.054,341.56
928.194,341.44
928.354,341.32
928.494,341.2
928.654,341.08
928.794,340.96
928.954,340.84
929.134,340.69
929.294,340.57
929.474,340.42
929.674,340.27
929.814,340.15
929.914,340.08
930.094,339.93
930.294,339.78
930.474,339.63
930.574,339.56
930.754,339.41
930.994,339.23
931.034,339.19
931.314,338.98
931.354,338.94
931.634,338.73
931.714,338.66
931.954,338.48
932.074,338.38
932.214,338.28
932.434,338.1
932.614,337.97
932.654,337.93
932.834,337.8
932.954,337.7
933.134,337.56
933.354,337.4
933.434,337.33
933.614,337.2
933.774,337.07
933.954,336.94
934.074,336.84
934.294,336.68
934.414,336.58
934.674,336.39
934.754,336.32
934.894,336.22
935.034,336.11
935.294,335.92
935.374,335.85
935.514,335.75
935.694,335.61
935.834,335.51
936.014,335.37
936.154,335.27
936.334,335.13
936.474,335.03
936.654,334.89
936.794,334.79
936.974,334.65
937.114,334.55
937.294,334.41
937.434,334.31
937.734,334.08
937.774,334.06
937.914,333.95
938.094,333.82
938.314,333.65
938.394,333.6
938.574,333.46
938.814,333.29
938.874,333.24
939.154,333.04
939.214,332.99
939.454,332.81
939.534,332.76
939.714,332.62
939.834,332.54
940.014,332.41
940.234,332.24
940.314,332.19
940.594,331.98
940.714,331.9
940.894,331.76
940.974,331.71
941.254,331.5
941.334,331.45
941.474,331.34
941.694,331.19
941.794,331.11
942.014,330.96
942.114,330.88
942.334,330.73
942.434,330.65
942.614,330.53
942.754,330.42
942.934,330.3
943.034,330.22
943.214,330.1
943.414,329.95
943.594,329.83
943.694,329.75
943.834,329.66
944.034,329.51
944.214,329.39
944.414,329.24
944.554,329.15
944.714,329.03
944.794,328.98
944.954,328.86
945.194,328.7
945.354,328.58
945.494,328.49
945.654,328.37
945.794,328.28
945.954,328.16
946.094,328.07
946.254,327.95
946.394,327.86
946.614,327.7
946.754,327.61
946.874,327.52
947.174,327.32
947.234,327.27
947.434,327.14
947.594,327.02
947.694,326.96
947.914,326.8
948.014,326.74
948.234,326.58
948.334,326.52
948.614,326.32
948.654,326.3
948.834,326.17
949.094,326
949.154,325.95
949.374,325.81
949.434,325.76
949.594,325.66
949.774,325.53
950.034,325.36
950.214,325.23
950.254,325.21
950.394,325.11
950.554,325.01
950.734,324.88
950.894,324.78
951.074,324.65
951.234,324.55
951.374,324.45
951.534,324.35
951.674,324.25
951.894,324.11
952.014,324.02
952.174,323.92
952.314,323.82
952.554,323.67
952.634,323.61
952.794,323.51
952.994,323.37
953.154,323.27
953.294,323.17
953.474,323.06
953.614,322.96
953.774,322.86
953.914,322.76
954.094,322.65
954.294,322.51
954.414,322.44
954.614,322.3
954.734,322.23
954.874,322.13
955.054,322.02
955.334,321.83
955.394,321.8
955.534,321.7
955.714,321.59
955.934,321.44
955.994,321.41
956.274,321.22
956.394,321.15
956.474,321.09
956.674,320.97
956.814,320.87
957.014,320.75
957.234,320.6
957.294,320.57
957.514,320.42
957.714,320.3
957.794,320.24
957.934,320.16
958.154,320.01
958.294,319.93
958.514,319.78
958.574,319.75
958.734,319.64
958.874,319.56
959.034,319.45
959.234,319.33
959.414,319.21
959.534,319.14
959.714,319.02
959.854,318.94
960.014,318.83
960.154,318.75
960.394,318.59
960.534,318.51
960.634,318.44
960.854,318.31
960.954,318.24
961.174,318.11
961.274,318.04
961.494,317.91
961.594,317.84
961.814,317.71
961.914,317.64
962.154,317.5
962.254,317.43
962.394,317.35
962.574,317.23
962.734,317.14
962.914,317.02
963.074,316.93
963.254,316.81
963.414,316.72
963.514,316.65
963.674,316.56
963.954,316.38
964.034,316.34
964.154,316.26
964.394,316.12
964.494,316.05
964.654,315.96
964.854,315.83
965.014,315.74
965.134,315.66
965.294,315.57
965.514,315.43
965.674,315.34
965.794,315.26
965.954,315.17
966.074,315.09
966.254,314.99
966.454,314.86
966.634,314.76
966.754,314.68
966.934,314.58
967.054,314.5
967.234,314.4
967.354,314.32
967.534,314.22
967.674,314.13
967.854,314.03
968.074,313.89
968.154,313.85
968.394,313.7
968.474,313.66
968.714,313.51
968.794,313.47
969.034,313.32
969.134,313.27
969.274,313.18
969.574,313.01
969.594,312.99
969.794,312.88
969.934,312.79
970.134,312.68
970.274,312.59
970.474,312.48
970.614,312.39
970.714,312.34
970.974,312.18
971.074,312.13
971.214,312.04
971.434,311.92
971.574,311.83
971.674,311.78
971.934,311.62
972.054,311.56
972.194,311.47
972.434,311.34
972.574,311.25
972.694,311.19
972.834,311.1
972.954,311.04
973.114,310.94
973.334,310.82
973.494,310.72
973.614,310.66
973.774,310.56
974.034,310.42
974.074,310.39
974.314,310.26
974.474,310.16
974.594,310.1
974.754,310
974.874,309.94
975.054,309.83
975.314,309.69
975.354,309.66
975.614,309.52
975.794,309.41
975.934,309.34
976.114,309.23
976.234,309.17
976.414,309.06
976.554,308.99
976.734,308.88
976.894,308.8
977.074,308.69
977.214,308.62
977.274,308.58
977.574,308.41
977.734,308.33
977.754,308.31
978.054,308.15
978.094,308.12
978.254,308.04
978.454,307.92
978.614,307.84
978.814,307.72
978.994,307.63
979.034,307.6
979.334,307.44
979.394,307.4
979.574,307.31
979.774,307.19
979.954,307.1
979.994,307.07
980.174,306.98
980.394,306.85
980.574,306.76
980.634,306.72
980.794,306.64
981.034,306.5
981.234,306.4
981.274,306.37
981.454,306.28
981.714,306.13
981.894,306.04
981.934,306.01
982.154,305.9
982.234,305.85
982.394,305.77
982.674,305.61
982.854,305.52
982.914,305.48
983.154,305.36
983.194,305.33
983.434,305.21
983.514,305.16
983.714,305.05
983.974,304.92
983.994,304.9
984.274,304.76
984.314,304.73
984.574,304.6
984.634,304.56
984.874,304.44
984.954,304.39
985.194,304.27
985.274,304.22
985.514,304.1
985.594,304.05
985.874,303.91
985.914,303.88
986.214,303.73
986.234,303.71
986.534,303.56
986.614,303.51
986.854,303.39
986.994,303.32
987.034,303.29
987.334,303.14
987.434,303.08
987.654,302.97
987.814,302.89
987.874,302.85
988.134,302.72
988.294,302.64
988.354,302.6
988.614,302.47
988.774,302.39
988.874,302.33
989.094,302.22
989.114,302.21
989.414,302.06
989.454,302.03
989.734,301.89
989.894,301.81
990.054,301.73
990.094,301.7
990.374,301.56
990.434,301.53
990.694,301.4
990.834,301.33
990.874,301.3
991.154,301.16
991.194,301.14
991.454,301.01
991.594,300.94
991.814,300.83
991.854,300.8
992.134,300.66
992.154,300.65
992.454,300.5
992.474,300.49
992.754,300.35
992.894,300.28
993.094,300.18
993.154,300.15
993.354,300.05
993.574,299.94
993.634,299.9
993.854,299.79
993.914,299.76
994.194,299.62
994.234,299.6
994.494,299.47
994.694,299.37
994.714,299.36
994.994,299.22
995.174,299.13
995.314,299.06
995.354,299.05
995.634,298.91
995.674,298.89
995.954,298.75
996.094,298.68
996.154,298.65
996.454,298.5
996.474,298.49
996.754,298.35
996.894,298.28
997.094,298.18
997.134,298.17
997.394,298.04
997.434,298.02
997.694,297.89
997.854,297.81
998.054,297.71
998.154,297.67
998.374,297.56
998.434,297.53
998.694,297.4
998.854,297.32
998.934,297.29
999.174,297.17
999.314,297.1
999.494,297.01
999.614,296.96
999.714,296.91
999.894,296.82
1000.134,296.7
1000.194,296.68
1000.454,296.55
1000.614,296.47
1000.734,296.42
1000.794,296.39
1001.094,296.24
1001.214,296.18
1001.274,296.16
1001.574,296.01
1001.694,295.96
1001.854,295.88
1002.054,295.78
1002.134,295.75
1002.334,295.65
1002.534,295.55
1002.554,295.55
1002.854,295.4
1002.954,295.36
1003.174,295.25
1003.294,295.19
1003.354,295.17
1003.654,295.02
1003.694,295.01
1003.974,294.87
1004.034,294.85
1004.294,294.72
1004.374,294.69
1004.614,294.57
1004.694,294.54
1004.934,294.42
1005.014,294.39
1005.254,294.27
1005.314,294.25
1005.574,294.12
1005.614,294.11
1005.894,293.97
1005.914,293.97
1006.174,293.84
1006.234,293.82
1006.454,293.71
1006.554,293.67
1006.734,293.58
1007.014,293.46
1007.174,293.38
1007.294,293.33
1007.494,293.23
1007.534,293.22
1007.774,293.1
1007.834,293.08
1008.014,292.99
1008.294,292.87
1008.454,292.79
1008.534,292.76
1008.734,292.66
1008.794,292.64
1008.974,292.55
1009.234,292.44
1009.414,292.35
1009.454,292.34
1009.654,292.24
1009.894,292.14
1010.054,292.06
1010.114,292.04
1010.314,291.94
1010.534,291.85
1010.694,291.77
1010.754,291.75
1010.934,291.66
1011.154,291.57
1011.334,291.48
1011.354,291.48
1011.534,291.39
1011.754,291.3
1011.934,291.21
1012.134,291.13
1012.294,291.05
1012.334,291.04
1012.494,290.96
1012.714,290.87
1012.874,290.79
1013.074,290.71
1013.254,290.62
1013.274,290.62
1013.434,290.54
1013.634,290.46
1013.774,290.39
1013.974,290.31
1014.134,290.23
1014.334,290.15
1014.474,290.08
1014.674,290
1014.814,289.93
1014.874,289.91
1015.154,289.78
1015.194,289.77
1015.494,289.63
1015.514,289.63
1015.814,289.49
1015.834,289.49
1016.134,289.35
1016.154,289.35
1016.454,289.21
1016.474,289.21
1016.754,289.08
1016.794,289.07
1017.074,288.94
1017.114,288.93
1017.374,288.81
1017.554,288.74
1017.674,288.68
1017.854,288.61
1017.974,288.55
1018.154,288.48
1018.274,288.42
1018.434,288.36
1018.554,288.3
1018.734,288.23
1018.994,288.11
1019.034,288.1
1019.274,287.99
1019.434,287.93
1019.554,287.87
1019.714,287.81
1019.834,287.75
1019.994,287.69
1020.254,287.57
1020.414,287.51
1020.514,287.46
1020.674,287.4
1020.794,287.34
1020.954,287.28
1021.194,287.17
1021.334,287.12
1021.454,287.06
1021.594,287.01
1021.834,286.9
1021.994,286.84
1022.094,286.79
1022.254,286.73
1022.474,286.63
1022.634,286.57
1022.734,286.52
1022.874,286.47
1023.114,286.36
1023.254,286.31
1023.354,286.26
1023.514,286.2
1023.734,286.1
1023.874,286.05
1024.094,285.95
1024.234,285.9
1024.334,285.85
1024.474,285.8
1024.694,285.7
1024.834,285.65
1025.034,285.56
1025.174,285.51
1025.274,285.46
1025.534,285.36
1025.634,285.31
1025.754,285.27
1025.974,285.17
1026.114,285.12
1026.314,285.03
1026.454,284.98
1026.654,284.89
1026.774,284.85
1026.874,284.8
1027.114,284.71
1027.214,284.66
1027.354,284.61
1027.654,284.48
1027.674,284.48
1027.874,284.39
1027.994,284.35
1028.194,284.26
1028.314,284.22
1028.514,284.13
1028.634,284.09
1028.834,284
1028.954,283.96
1029.154,283.87
1029.274,283.83
1029.474,283.74
1029.594,283.7
1029.774,283.62
1029.914,283.57
1030.094,283.49
1030.314,283.41
1030.394,283.37
1030.614,283.29
1030.794,283.21
1030.914,283.17
1031.114,283.08
1031.234,283.04
1031.414,282.96
1031.534,282.92
1031.714,282.84
1031.914,282.77
1031.994,282.73
1032.214,282.65
1032.394,282.57
1032.514,282.53
1032.694,282.45
1032.794,282.42
1032.974,282.34
1033.194,282.26
1033.354,282.19
1033.474,282.15
1033.654,282.07
1033.754,282.04
1033.934,281.96
1034.134,281.89
1034.314,281.81
1034.414,281.78
1034.594,281.7
1034.794,281.63
1034.954,281.56
1035.154,281.49
1035.234,281.45
1035.434,281.38
1035.514,281.34
1035.794,281.24
1035.874,281.2
1036.074,281.13
1036.234,281.06
1036.334,281.03
1036.494,280.96
1036.694,280.89
1036.854,280.82
1037.054,280.75
1037.134,280.71
1037.314,280.65
1037.474,280.58
1037.594,280.54
1037.834,280.44
1037.934,280.41
1038.094,280.34
1038.274,280.28
1038.434,280.21
1038.554,280.17
1038.774,280.08
1038.894,280.04
1039.034,279.98
1039.234,279.91
1039.374,279.85
1039.574,279.78
1039.714,279.72
1039.894,279.66
1040.054,279.59
1040.154,279.56
1040.394,279.46
1040.494,279.43
1040.634,279.37
1040.814,279.31
1040.974,279.24
1041.154,279.18
1041.294,279.12
1041.474,279.06
1041.614,279
1041.794,278.94
1041.954,278.87
1042.134,278.81
1042.274,278.75
1042.454,278.69
1042.594,278.63
1042.774,278.57
1042.914,278.51
1043.094,278.45
1043.234,278.39
1043.414,278.33
1043.534,278.28
1043.714,278.22
1043.854,278.16
1044.034,278.1
1044.174,278.04
1044.354,277.98
1044.474,277.93
1044.654,277.87
1044.794,277.81
1044.974,277.75
1045.174,277.67
1045.274,277.64
1045.494,277.55
1045.654,277.5
1045.794,277.44
1045.954,277.39
1046.094,277.33
1046.334,277.25
1046.394,277.22
1046.634,277.14
1046.774,277.08
1046.934,277.03
1047.074,276.97
1047.234,276.92
1047.374,276.86
1047.534,276.81
1047.674,276.75
1047.834,276.7
1048.114,276.59
1048.194,276.57
1048.334,276.51
1048.494,276.46
1048.774,276.35
1048.854,276.33
1048.994,276.27
1049.214,276.2
1049.274,276.17
1049.434,276.12
1049.714,276.01
1049.794,275.99
1049.914,275.94
1050.154,275.86
1050.354,275.78
1050.434,275.76
1050.634,275.68
1050.794,275.63
1050.994,275.55
1051.074,275.53
1051.274,275.45
1051.354,275.43
1051.554,275.35
1051.774,275.28
1051.834,275.25
1052.054,275.18
1052.254,275.1
1052.334,275.08
1052.594,274.98
1052.674,274.96
1052.874,274.88
1052.954,274.86
1053.214,274.76
1053.294,274.74
1053.554,274.64
1053.634,274.62
1053.754,274.57
1053.974,274.5
1054.094,274.45
1054.314,274.38
1054.434,274.33
1054.654,274.26
1054.774,274.21
1054.914,274.17
1055.034,274.12
1055.314,274.03
1055.374,274
1055.514,273.96
1055.774,273.86
1055.854,273.84
1056.034,273.77
1056.254,273.7
1056.434,273.63
1056.574,273.59
1056.634,273.56
1056.834,273.5
1056.954,273.45
1057.234,273.36
1057.414,273.29
1057.434,273.29
1057.674,273.2
1057.874,273.14
1057.934,273.11
1058.194,273.03
1058.254,273
1058.514,272.92
1058.574,272.89
1058.834,272.81
1058.894,272.78
1059.154,272.7
1059.214,272.67
1059.354,272.63
1059.594,272.54
1059.674,272.52
1059.974,272.41
1059.994,272.41
1060.154,272.35
1060.354,272.29
1060.474,272.24
1060.674,272.18
1060.914,272.09
1060.994,272.07
1061.154,272.01
1061.294,271.97
1061.534,271.88
1061.614,271.86
1061.774,271.8
1061.914,271.76
1062.214,271.66
1062.274,271.63
1062.414,271.59
1062.574,271.53
1062.714,271.49
1062.874,271.43
1063.074,271.37
1063.234,271.31
1063.374,271.27
1063.554,271.2
1063.694,271.16
1063.854,271.1
1063.994,271.06
1064.154,271
1064.354,270.94
1064.514,270.88
1064.654,270.84
1064.814,270.78
1064.954,270.74
1065.234,270.64
1065.294,270.63
1065.454,270.57
1065.594,270.53
1065.754,270.47
1065.954,270.41
1066.114,270.35
1066.254,270.31
1066.414,270.25
1066.594,270.2
1066.754,270.14
1066.894,270.1
1067.054,270.04
1067.294,269.97
1067.394,269.93
1067.534,269.89
1067.694,269.83
1067.874,269.78
1068.034,269.72
1068.174,269.68
1068.334,269.62
1068.514,269.57
1068.674,269.51
1068.854,269.46
1068.954,269.42
1069.254,269.33
1069.294,269.31
1069.434,269.27
1069.594,269.21
1069.774,269.16
1069.934,269.1
1070.114,269.05
1070.274,268.99
1070.394,268.96
1070.614,268.88
1070.734,268.85
1070.894,268.79
1071.074,268.74
1071.334,268.65
1071.354,268.65
1071.614,268.56
1071.794,268.51
1071.834,268.49
1072.074,268.42
1072.174,268.38
1072.354,268.33
1072.514,268.27
1072.634,268.24
1072.894,268.15
1073.014,268.12
1073.174,268.06
1073.294,268.03
1073.554,267.94
1073.674,267.91
1073.834,267.85
1074.054,267.79
1074.094,267.77
1074.274,267.72
1074.434,267.66
1074.654,267.6
1074.814,267.54
1074.874,267.53
1075.134,267.44
1075.254,267.41
1075.354,267.37
1075.574,267.31
1075.674,267.27
1075.954,267.19
1076.054,267.15
1076.174,267.12
1076.374,267.05
1076.494,267.02
1076.694,266.95
1076.814,266.92
1077.014,266.85
1077.134,266.82
1077.334,266.75
1077.454,266.72
1077.654,266.65
1077.814,266.61
1077.914,266.57
1078.134,266.51
1078.234,266.47
1078.394,266.43
1078.654,266.34
1078.714,266.33
1078.914,266.26
1079.034,266.23
1079.334,266.13
1079.394,266.12
1079.594,266.05
1079.754,266.01
1079.854,265.97
1080.014,265.93
1080.214,265.86
1080.334,265.83
1080.474,265.78
1080.634,265.74
1080.834,265.67
1080.954,265.64
1081.194,265.56
1081.314,265.53
1081.454,265.48
1081.614,265.44
1081.814,265.37
1081.974,265.33
1082.114,265.28
1082.234,265.25
1082.474,265.17
1082.634,265.13
1082.834,265.06
1082.894,265.05
1083.034,265
1083.194,264.96
1083.434,264.88
1083.594,264.84
1083.694,264.8
1083.854,264.76
1083.994,264.71
1084.154,264.67
1084.394,264.59
1084.554,264.55
1084.694,264.5
1084.854,264.46
1084.994,264.41
1085.154,264.37
1085.294,264.32
1085.454,264.28
1085.594,264.23
1085.754,264.19
1085.934,264.13
1086.094,264.09
1086.234,264.04
1086.394,264
1086.634,263.92
1086.734,263.9
1086.874,263.85
1087.034,263.81
1087.274,263.73
1087.374,263.71
1087.514,263.66
1087.674,263.62
1087.854,263.56
1088.014,263.52
1088.154,263.47
1088.354,263.42
1088.494,263.37
1088.694,263.32
1088.834,263.27
1089.034,263.22
1089.174,263.17
1089.274,263.15
1089.454,263.09
1089.614,263.05
1089.754,263
1089.954,262.95
1090.134,262.89
1090.334,262.84
1090.474,262.79
1090.574,262.77
1090.714,262.72
1090.914,262.67
1091.094,262.61
1091.194,262.59
1091.374,262.53
1091.534,262.49
1091.714,262.43
1091.914,262.38
1092.094,262.32
1092.194,262.3
1092.334,262.25
1092.574,262.19
1092.654,262.16
1092.814,262.12
1092.994,262.06
1093.234,262
1093.274,261.98
1093.514,261.92
1093.654,261.87
1093.754,261.85
1093.934,261.79
1094.174,261.73
1094.254,261.7
1094.454,261.65
1094.634,261.59
1094.734,261.57
1094.914,261.51
1095.154,261.45
1095.194,261.43
1095.474,261.36
1095.514,261.34
1095.754,261.28
1095.934,261.22
1096.034,261.2
1096.254,261.13
1096.354,261.11
1096.534,261.05
1096.634,261.03
1096.854,260.96
1096.954,260.94
1097.134,260.88
1097.274,260.85
1097.454,260.79
1097.594,260.76
1097.774,260.7
1097.914,260.67
1098.094,260.61
1098.234,260.58
1098.454,260.51
1098.554,260.49
1098.774,260.42
1098.914,260.39
1099.094,260.33
1099.234,260.3
1099.454,260.23
1099.594,260.2
1099.674,260.17
1099.954,260.1
1099.994,260.08
1100.274,260.01
1100.314,259.99
1100.594,259.92
1100.714,259.88
1100.854,259.85
1101.074,259.78
1101.214,259.75
1101.294,259.72
1101.574,259.65
1101.654,259.62
1101.794,259.59
1102.014,259.52
1102.194,259.48
1102.234,259.46
1102.514,259.39
1102.634,259.35
1102.774,259.32
1102.894,259.28
1103.174,259.21
1103.254,259.18
1103.434,259.14
1103.514,259.11
1103.794,259.04
1103.874,259.01
1104.054,258.97
1104.174,258.93
1104.454,258.86
1104.574,258.82
1104.754,258.78
1104.794,258.76
1104.974,258.72
1105.234,258.64
1105.414,258.6
1105.494,258.57
1105.674,258.53
1105.754,258.5
1105.934,258.46
1106.094,258.41
1106.374,258.34
1106.494,258.3
1106.674,258.26
1106.754,258.23
1106.974,258.18
1107.054,258.15
1107.234,258.11
1107.354,258.07
1107.534,258.02
1107.794,257.96
1107.834,257.94
1108.054,257.89
1108.174,257.85
1108.354,257.81
1108.474,257.77
1108.654,257.73
1108.814,257.68
1108.954,257.65
1109.114,257.6
1109.294,257.55
1109.554,257.49
1109.634,257.46
1109.894,257.4
1109.934,257.38
1110.194,257.32
1110.274,257.29
1110.534,257.23
1110.614,257.2
1110.714,257.18
1110.994,257.1
1111.054,257.09
1111.294,257.03
1111.374,257
1111.634,256.94
1111.714,256.91
1111.854,256.88
1112.094,256.82
1112.174,256.79
1112.434,256.73
1112.554,256.69
1112.654,256.67
1112.934,256.6
1112.974,256.58
1113.114,256.55
1113.394,256.48
1113.434,256.46
1113.614,256.42
1113.854,256.36
1113.934,256.33
1114.074,256.3
1114.354,256.23
1114.394,256.21
1114.574,256.17
1114.854,256.1
1114.934,256.07
1115.034,256.05
1115.214,256
1115.474,255.94
1115.554,255.91
1115.694,255.88
1115.834,255.84
1116.134,255.77
1116.174,255.75
1116.314,255.72
1116.494,255.67
1116.634,255.64
1116.874,255.58
1116.954,255.55
1117.134,255.51
1117.274,255.47
1117.454,255.43
1117.694,255.37
1117.774,255.34
1117.914,255.31
1118.094,255.26
1118.234,255.23
1118.414,255.18
1118.674,255.12
1118.754,255.09
1118.894,255.06
1119.034,255.02
1119.214,254.98
1119.354,254.94
1119.534,254.9
1119.674,254.86
1119.854,254.82
1120.134,254.75
1120.254,254.71
1120.314,254.7
1120.494,254.65
1120.634,254.62
1120.814,254.57
1120.954,254.54
1121.134,254.49
1121.274,254.46
1121.454,254.41
1121.594,254.38
1121.774,254.33
1121.914,254.3
1122.094,254.25
1122.234,254.22
1122.414,254.17
1122.554,254.14
1122.734,254.09
1122.874,254.06
1123.054,254.01
1123.194,253.98
1123.374,253.93
1123.514,253.9
1123.694,253.85
1123.834,253.82
1124.014,253.77
1124.154,253.74
1124.454,253.66
1124.534,253.65
1124.634,253.62
1124.814,253.58
1124.954,253.54
1125.134,253.5
1125.274,253.46
1125.454,253.42
1125.594,253.38
1125.774,253.34
1125.994,253.28
1126.074,253.27
1126.254,253.22
1126.394,253.19
1126.574,253.14
1126.714,253.11
1127.014,253.03
1127.094,253.02
1127.194,252.99
1127.374,252.95
1127.514,252.91
1127.694,252.87
1127.914,252.81
1127.994,252.8
1128.174,252.75
1128.314,252.72
1128.614,252.64
1128.694,252.63
1128.794,252.6
1128.974,252.56
1129.154,252.51
1129.354,252.47
1129.454,252.44
1129.594,252.41
1129.894,252.33
1129.934,252.33
1130.074,252.29
1130.254,252.25
1130.474,252.19
1130.554,252.18
1130.734,252.13
1131.014,252.06
1131.054,252.06
1131.194,252.02
1131.474,251.95
1131.554,251.94
1131.694,251.9
1131.974,251.83
1132.014,251.83
1132.154,251.79
1132.434,251.72
1132.474,251.72
1132.774,251.64
1132.894,251.62
1132.954,251.6
1133.234,251.53
1133.314,251.52
1133.454,251.48
1133.694,251.43
1133.754,251.41
1134.034,251.34
1134.114,251.33
1134.374,251.26
1134.454,251.25
1134.554,251.22
1134.834,251.16
1134.894,251.14
1135.134,251.08
1135.214,251.07
1135.474,251
1135.554,250.99
1135.814,250.92
1135.894,250.91
1136.114,250.85
1136.194,250.84
1136.454,250.77
1136.534,250.76
1136.754,250.7
1136.834,250.69
1137.094,250.62
1137.134,250.62
1137.394,250.55
1137.434,250.55
1137.694,250.48
1137.774,250.47
1137.994,250.41
1138.074,250.4
1138.294,250.34
1138.414,250.32
1138.554,250.28
1138.714,250.25
1138.894,250.21
1139.114,250.15
1139.194,250.14
1139.374,250.09
1139.534,250.06
1139.814,249.99
1139.934,249.97
1140.114,249.92
1140.194,249.91
1140.414,249.85
1140.494,249.84
1140.674,249.79
1140.794,249.77
1141.074,249.7
1141.194,249.68
1141.414,249.62
1141.454,249.62
1141.634,249.57
1141.754,249.55
1142.034,249.48
1142.154,249.46
1142.334,249.41
1142.414,249.4
1142.594,249.35
1142.854,249.3
1142.994,249.26
1143.074,249.25
1143.254,249.2
1143.374,249.18
1143.654,249.11
1143.734,249.1
1143.914,249.05
1143.994,249.04
1144.274,248.97
1144.354,248.96
1144.534,248.91
1144.654,248.89
1144.934,248.82
1144.974,248.82
1145.154,248.77
1145.374,248.73
1145.554,248.68
1145.594,248.68
1145.874,248.61
1145.994,248.59
1146.134,248.55
1146.254,248.53
1146.534,248.46
1146.574,248.46
1146.714,248.42
1146.934,248.38
1147.114,248.33
1147.194,248.32
1147.474,248.25
1147.514,248.25
1147.794,248.18
1147.874,248.17
1148.014,248.13
1148.234,248.09
1148.374,248.05
1148.594,248.01
1148.734,247.97
1148.814,247.96
1149.094,247.89
1149.134,247.89
1149.274,247.85
1149.494,247.81
1149.634,247.77
1149.814,247.74
1149.954,247.7
1150.174,247.66
1150.314,247.62
1150.494,247.59
1150.634,247.55
1150.714,247.54
1150.954,247.48
1151.034,247.47
1151.274,247.41
1151.354,247.4
1151.634,247.33
1151.674,247.33
1151.954,247.26
1151.994,247.26
1152.274,247.19
1152.314,247.19
1152.554,247.13
1152.634,247.12
1152.874,247.06
1152.954,247.05
1153.194,246.99
1153.374,246.96
1153.514,246.92
1153.694,246.89
1153.794,246.86
1154.014,246.82
1154.114,246.79
1154.294,246.76
1154.394,246.73
1154.574,246.7
1154.714,246.66
1154.894,246.63
1155.134,246.57
1155.214,246.56
1155.414,246.51
1155.594,246.48
1155.734,246.44
1155.914,246.41
1156.014,246.38
1156.194,246.35
1156.434,246.29
1156.474,246.29
1156.714,246.23
1156.894,246.2
1156.994,246.17
1157.174,246.14
1157.274,246.11
1157.454,246.08
1157.694,246.02
1157.834,246
1157.934,245.97
1158.114,245.94
1158.354,245.88
1158.394,245.88
1158.634,245.82
1158.774,245.8
1158.874,245.77
1159.054,245.74
1159.294,245.68
1159.434,245.66
1159.534,245.63
1159.714,245.6
1159.914,245.55
1160.094,245.52
1160.194,245.49
1160.334,245.47
1160.574,245.41
1160.654,245.4
1160.814,245.36
1160.994,245.33
1161.194,245.28
1161.274,245.27
1161.434,245.23
1161.614,245.2
1161.814,245.15
1161.994,245.12
1162.194,245.07
1162.234,245.07
1162.434,245.02
1162.614,244.99
1162.814,244.94
1162.954,244.92
1163.054,244.89
1163.194,244.87
1163.394,244.82
1163.574,244.79
1163.774,244.74
1163.914,244.72
1164.114,244.67
1164.154,244.67
1164.354,244.62
1164.494,244.6
1164.694,244.55
1164.834,244.53
1165.034,244.48
1165.114,244.47
1165.274,244.43
1165.454,244.4
1165.614,244.36
1165.754,244.34
1165.954,244.29
1166.094,244.27
1166.294,244.22
1166.434,244.2
1166.634,244.15
1166.774,244.13
1166.974,244.08
1167.114,244.06
1167.314,244.01
1167.354,244.01
1167.514,243.97
1167.694,243.94
1167.854,243.9
1167.994,243.88
1168.154,243.84
1168.334,243.81
1168.494,243.77
1168.634,243.75
1168.834,243.7
1168.974,243.68
1169.134,243.64
1169.274,243.62
1169.474,243.57
1169.614,243.55
1169.774,243.51
1169.914,243.49
1170.074,243.45
1170.254,243.42
1170.414,243.38
1170.554,243.36
1170.714,243.32
1170.954,243.28
1171.114,243.24
1171.254,243.22
1171.454,243.17
1171.594,243.15
1171.754,243.11
1171.894,243.09
1172.054,243.05
1172.194,243.03
1172.354,242.99
1172.494,242.97
1172.654,242.93
1172.794,242.91
1172.954,242.87
1173.194,242.83
1173.354,242.79
1173.494,242.77
1173.654,242.73
1173.794,242.71
1173.954,242.67
1174.154,242.64
1174.314,242.6
1174.454,242.58
1174.614,242.54
1174.754,242.52
1174.914,242.48
1175.054,242.46
1175.214,242.42
1175.414,242.39
1175.574,242.35
1175.714,242.33
1175.874,242.29
1176.014,242.27
1176.234,242.22
1176.374,242.2
1176.534,242.16
1176.674,242.14
1176.794,242.11
1177.034,242.07
1177.194,242.03
1177.394,242
1177.454,241.98
1177.594,241.96
1177.754,241.92
1177.954,241.89
1178.114,241.85
1178.314,241.82
1178.474,241.78
1178.614,241.76
1178.734,241.73
1178.874,241.71
1179.034,241.67
1179.234,241.64
1179.394,241.6
1179.594,241.57
1179.754,241.53
1179.854,241.52
1180.014,241.48
1180.214,241.45
1180.374,241.41
1180.574,241.38
1180.634,241.36
1180.834,241.33
1180.994,241.29
1181.194,241.26
1181.354,241.22
1181.454,241.21
1181.614,241.17
1181.814,241.14
1181.934,241.11
1182.074,241.09
1182.294,241.04
1182.494,241.01
1182.554,240.99
1182.754,240.96
1182.914,240.92
1183.114,240.89
1183.234,240.86
1183.434,240.83
1183.594,240.79
1183.694,240.78
1183.854,240.74
1184.114,240.7
1184.174,240.68
1184.374,240.65
1184.494,240.62
1184.634,240.6
1184.854,240.55
1184.954,240.54
1185.114,240.5
1185.374,240.46
1185.434,240.44
1185.634,240.41
1185.754,240.38
1185.954,240.35
1186.174,240.3
1186.274,240.29
1186.434,240.25
1186.694,240.21
1186.754,240.19
1187.014,240.15
1187.074,240.13
1187.334,240.09
1187.394,240.07
1187.654,240.03
1187.714,240.01
1187.914,239.98
1188.034,239.95
1188.234,239.92
1188.354,239.89
1188.554,239.86
1188.774,239.81
1188.814,239.81
1188.994,239.77
1189.254,239.73
1189.314,239.71
1189.574,239.67
1189.634,239.65
1189.894,239.61
1189.954,239.59
1190.214,239.55
1190.234,239.54
1190.434,239.51
1190.654,239.46
1190.754,239.45
1190.874,239.42
1191.134,239.38
1191.194,239.36
1191.454,239.32
1191.574,239.29
1191.674,239.28
1191.894,239.23
1192.054,239.21
1192.274,239.16
1192.314,239.16
1192.494,239.12
1192.754,239.08
1192.874,239.05
1192.974,239.04
1193.254,238.98
1193.294,238.98
1193.474,238.94
1193.734,238.9
1193.754,238.89
1193.954,238.86
1194.074,238.83
1194.334,238.79
1194.454,238.76
1194.614,238.74
1194.834,238.69
1194.934,238.68
1195.054,238.65
1195.214,238.63
1195.494,238.57
1195.534,238.57
1195.714,238.53
1195.874,238.51
1195.994,238.48
1196.254,238.44
1196.374,238.41
1196.534,238.39
1196.654,238.36
1196.914,238.32
1197.094,238.28
1197.134,238.28
1197.314,238.24
1197.474,238.22
1197.594,238.19
1197.854,238.15
1198.034,238.11
1198.074,238.11
1198.254,238.07
1198.414,238.05
1198.594,238.01
1198.854,237.97
1198.874,237.96
1199.134,237.92
1199.314,237.88
1199.474,237.86
1199.534,237.84
1199.694,237.82
1199.874,237.78
1200.034,237.76
1200.154,237.73
1200.314,237.71
1200.494,237.67
1200.754,237.63
1200.934,237.59
1200.974,237.59
1201.214,237.55
1201.274,237.53
1201.494,237.5
1201.614,237.47
1201.774,237.45
1201.954,237.41
1202.114,237.39
1202.234,237.36
1202.394,237.34
1202.574,237.3
1202.734,237.28
1202.914,237.24
1203.074,237.22
1203.194,237.19
1203.414,237.16
1203.534,237.13
1203.694,237.11
1203.874,237.07
1204.094,237.04
1204.154,237.02
1204.314,237
1204.554,236.95
1204.654,236.94
1204.894,236.9
1204.954,236.88
1205.114,236.86
1205.294,236.82
1205.454,236.8
1205.694,236.75
1205.794,236.74
1205.934,236.71
1206.094,236.69
1206.274,236.65
1206.494,236.62
1206.554,236.6
1206.714,236.58
1207.014,236.52
1207.054,236.52
1207.194,236.49
1207.414,236.46
1207.534,236.43
1207.694,236.41
1207.934,236.37
1207.994,236.35
1208.154,236.33
1208.454,236.28
1208.514,236.26
1208.674,236.24
1208.814,236.21
1208.974,236.19
1209.154,236.15
1209.314,236.13
1209.454,236.1
1209.614,236.08
1209.794,236.04
1209.954,236.02
1210.094,235.99
1210.254,235.97
1210.434,235.93
1210.594,235.91
1210.734,235.88
1210.894,235.86
1211.074,235.82
1211.234,235.8
1211.374,235.77
1211.534,235.75
1211.774,235.71
1211.834,235.69
1211.994,235.67
1212.194,235.63
1212.354,235.61
1212.494,235.58
1212.654,235.56
1212.834,235.52
1212.994,235.5
1213.134,235.47
1213.294,235.45
1213.434,235.42
1213.594,235.4
1213.834,235.35
1213.934,235.34
1214.074,235.31
1214.234,235.29
1214.434,235.25
1214.594,235.23
1214.734,235.2
1214.894,235.18
1215.034,235.15
1215.194,235.13
1215.494,235.07
1215.534,235.07
1215.674,235.04
1215.834,235.02
1216.034,234.98
1216.194,234.96
1216.334,234.93
1216.494,234.91
1216.634,234.88
1216.794,234.86
1216.994,234.82
1217.154,234.8
1217.294,234.77
1217.454,234.75
1217.594,234.72
1217.754,234.7
1217.954,234.66
1218.114,234.64
1218.254,234.61
1218.414,234.59
1218.554,234.56
1218.714,234.54
1218.914,234.5
1219.074,234.48
1219.214,234.45
1219.374,234.43
1219.514,234.4
1219.674,234.38
1219.874,234.34
1220.114,234.31
1220.194,234.29
1220.354,234.27
1220.494,234.24
1220.654,234.22
1220.794,234.19
1220.954,234.17
1221.154,234.13
1221.314,234.11
1221.454,234.08
1221.694,234.04
1221.754,234.04
1221.954,234
1222.114,233.98
1222.254,233.95
1222.414,233.93
1222.554,233.9
1222.854,233.85
1222.914,233.85
1223.054,233.82
1223.214,233.8
1223.354,233.77
1223.514,233.75
1223.774,233.7
1223.834,233.7
1224.034,233.66
1224.194,233.64
1224.334,233.61
1224.574,233.57
1224.634,233.57
1224.834,233.53
1224.994,233.51
1225.134,233.48
1225.374,233.45
1225.454,233.43
1225.614,233.41
1225.754,233.38
1226.054,233.34
1226.074,233.33
1226.234,233.31
1226.434,233.27
1226.674,233.24
1226.754,233.22
1226.914,233.2
1227.054,233.17
1227.234,233.15
1227.374,233.12
1227.534,233.1
1227.734,233.06
1227.854,233.05
1227.994,233.02
1228.294,232.98
1228.314,232.97
1228.474,232.95
1228.734,232.9
1228.794,232.9
1228.994,232.86
1229.234,232.83
1229.314,232.81
1229.474,232.79
1229.614,232.76
1229.794,232.74
1229.934,232.71
1230.174,232.68
1230.254,232.66
1230.494,232.62
1230.554,232.62
1230.754,232.58
1230.994,232.55
1231.074,232.53
1231.314,232.49
1231.374,232.49
1231.514,232.46
1231.754,232.43
1231.834,232.41
1232.134,232.37
1232.154,232.36
1232.454,232.31
1232.514,232.31
1232.654,232.28
1232.894,232.25
1232.974,232.23
1233.214,232.2
1233.294,232.18
1233.534,232.14
1233.594,232.14
1233.794,232.1
1233.914,232.09
1234.174,232.04
1234.234,232.04
1234.494,231.99
1234.554,231.99
1234.754,231.95
1234.874,231.94
1235.134,231.89
1235.194,231.89
1235.394,231.85
1235.514,231.84
1235.714,231.8
1235.834,231.79
1236.034,231.75
1236.154,231.74
1236.354,231.7
1236.474,231.69
1236.754,231.64
1236.934,231.62
1236.954,231.61
1237.254,231.57
1237.274,231.56
1237.514,231.53
1237.714,231.49
1237.774,231.49
1237.974,231.45
1238.094,231.44
1238.294,231.4
1238.414,231.39
1238.554,231.36
1238.734,231.34
1239.014,231.29
1239.074,231.29
1239.214,231.26
1239.394,231.24
1239.534,231.21
1239.714,231.19
1239.934,231.15
1240.114,231.13
1240.194,231.11
1240.374,231.09
1240.514,231.06
1240.634,231.05
1240.914,231
1241.034,230.99
1241.234,230.95
1241.294,230.95
1241.494,230.91
1241.614,230.9
1241.894,230.85
1242.014,230.84
1242.094,230.82
1242.274,230.8
1242.494,230.76
1242.674,230.74
1242.754,230.72
1242.874,230.71
1243.154,230.66
1243.334,230.64
1243.474,230.61
1243.534,230.61
1243.674,230.58
1243.934,230.55
1244.014,230.53
1244.194,230.51
1244.334,230.48
1244.594,230.45
1244.734,230.42
1244.794,230.42
1245.074,230.37
1245.194,230.36
1245.334,230.33
1245.454,230.32
1245.734,230.27
1245.794,230.27
1245.934,230.24
1246.194,230.21
1246.274,230.19
1246.394,230.18
1246.674,230.13
1246.734,230.13
1246.874,230.1
1247.134,230.07
1247.214,230.05
1247.394,230.03
1247.614,229.99
1247.734,229.98
1247.954,229.94
1248.074,229.93
1248.214,229.9
1248.334,229.89
1248.554,229.85
1248.674,229.84
1248.894,229.8
1249.014,229.79
1249.234,229.75
1249.354,229.74
1249.434,229.72
1249.694,229.69
1249.834,229.66
1250.034,229.64
1250.174,229.61
1250.234,229.61
1250.514,229.56
1250.574,229.56
1250.854,229.51
1250.914,229.51
1251.134,229.47
1251.254,229.46
1251.474,229.42
1251.594,229.41
1251.674,229.39
1251.934,229.36
1252.014,229.34
1252.214,229.32
1252.354,229.29
1252.554,229.27
1252.634,229.25
1252.894,229.22
1252.974,229.2
1253.174,229.18
1253.314,229.15
1253.514,229.13
1253.594,229.11
1253.854,229.08
1253.934,229.06
1254.134,229.04
1254.274,229.01
1254.474,228.99
1254.554,228.97
1254.754,228.95
1254.974,228.91
1255.094,228.9
1255.314,228.86
1255.374,228.86
1255.594,228.82
1255.714,228.81
1255.934,228.77
1255.994,228.77
1256.214,228.73
1256.414,228.71
1256.494,228.69
1256.694,228.67
1256.914,228.63
1257.034,228.62
1257.114,228.6
1257.314,228.58
1257.534,228.54
1257.594,228.54
1257.814,228.5
1258.014,228.48
1258.094,228.46
1258.294,228.44
1258.514,228.4
1258.574,228.4
1258.794,228.36
1258.994,228.34
1259.074,228.32
1259.274,228.3
1259.354,228.28
1259.554,228.26
1259.774,228.22
1259.834,228.22
1260.054,228.18
1260.254,228.16
1260.334,228.14
1260.614,228.11
1260.694,228.09
1260.894,228.07
1260.974,228.05
1261.174,228.03
1261.394,227.99
1261.454,227.99
1261.614,227.96
1261.814,227.94
1262.034,227.9
1262.094,227.9
1262.314,227.86
1262.514,227.84
1262.674,227.81
1262.734,227.81
1262.954,227.77
1263.074,227.76
1263.314,227.72
1263.374,227.72
1263.594,227.68
1263.794,227.66
1263.954,227.63
1264.014,227.63
1264.234,227.59
1264.374,227.58
1264.594,227.54
1264.654,227.54
1264.814,227.51
1265.014,227.49
1265.174,227.46
1265.374,227.44
1265.454,227.42
1265.734,227.39
1265.814,227.37
1265.934,227.36
1266.174,227.32
1266.234,227.32
1266.394,227.29
1266.594,227.27
1266.754,227.24
1266.954,227.22
1267.034,227.2
1267.314,227.17
1267.394,227.15
1267.534,227.14
1267.694,227.11
1267.894,227.09
1268.054,227.06
1268.174,227.05
1268.414,227.01
1268.474,227.01
1268.634,226.98
1268.914,226.95
1268.994,226.93
1269.114,226.92
1269.354,226.88
1269.494,226.87
1269.654,226.84
1269.854,226.82
1269.934,226.8
1270.074,226.79
1270.234,226.76
1270.514,226.73
1270.594,226.71
1270.734,226.7
1270.894,226.67
1271.174,226.64
1271.254,226.62
1271.394,226.61
1271.554,226.58
1271.754,226.56
1271.914,226.53
1272.054,226.52
1272.214,226.49
1272.414,226.47
1272.574,226.44
1272.634,226.44
1272.794,226.41
1273.074,226.38
1273.234,226.35
1273.294,226.35
1273.534,226.31
1273.594,226.31
1273.754,226.28
1273.954,226.26
1274.134,226.23
1274.334,226.21
1274.494,226.18
1274.554,226.18
1274.714,226.15
1274.934,226.13
1275.094,226.1
1275.214,226.09
1275.394,226.06
1275.514,226.05
1275.754,226.01
1275.894,226
1276.054,225.97
1276.194,225.96
1276.354,225.93
1276.494,225.92
1276.654,225.89
1276.794,225.88
1276.954,225.85
1277.154,225.83
1277.394,225.8
1277.474,225.78
1277.614,225.77
1277.774,225.74
1277.914,225.73
1278.074,225.7
1278.294,225.68
1278.454,225.65
1278.594,225.64
1278.754,225.61
1278.894,225.6
1279.054,225.57
1279.194,225.56
1279.354,225.53
1279.574,225.51
1279.734,225.48
1279.874,225.47
1280.034,225.44
1280.174,225.43
1280.334,225.4
1280.474,225.39
1280.634,225.36
1280.854,225.34
1281.014,225.31
1281.154,225.3
1281.394,225.26
1281.454,225.26
1281.634,225.23
1281.754,225.22
1281.934,225.19
1282.074,225.18
1282.234,225.15
1282.454,225.13
1282.614,225.1
1282.754,225.09
1282.914,225.06
1283.054,225.05
1283.234,225.02
1283.354,225.01
1283.534,224.98
1283.674,224.97
1283.834,224.94
1284.054,224.92
1284.154,224.9
1284.354,224.88
1284.534,224.85
1284.674,224.84
1284.834,224.81
1284.974,224.8
1285.214,224.76
1285.274,224.76
1285.454,224.73
1285.594,224.72
1285.754,224.69
1285.974,224.67
1286.074,224.65
1286.274,224.63
1286.454,224.6
1286.594,224.59
1286.834,224.55
1286.894,224.55
1287.074,224.52
1287.214,224.51
1287.454,224.47
1287.514,224.47
1287.694,224.44
1287.834,224.43
1288.014,224.4
1288.214,224.38
1288.314,224.36
1288.534,224.34
1288.634,224.32
1288.834,224.3
1289.014,224.27
1289.154,224.26
1289.334,224.23
1289.474,224.22
1289.634,224.19
1289.774,224.18
1289.954,224.15
1290.094,224.14
1290.274,224.11
1290.414,224.1
1290.574,224.07
1290.714,224.06
1290.894,224.03
1291.034,224.02
1291.214,223.99
1291.354,223.98
1291.594,223.94
1291.734,223.93
1291.834,223.91
1292.054,223.89
1292.154,223.87
1292.374,223.85
1292.474,223.83
1292.694,223.81
1292.794,223.79
1292.994,223.77
1293.174,223.74
1293.314,223.73
1293.494,223.7
1293.634,223.69
1293.814,223.66
1293.954,223.65
1294.134,223.62
1294.274,223.61
1294.454,223.58
1294.594,223.57
1294.774,223.54
1294.914,223.53
1295.094,223.5
1295.234,223.49
1295.414,223.46
1295.554,223.45
1295.734,223.42
1295.874,223.41
1296.034,223.38
1296.174,223.37
1296.354,223.34
1296.494,223.33
1296.674,223.3
1296.834,223.29
1297.014,223.26
1297.154,223.25
1297.334,223.22
1297.474,223.21
1297.654,223.18
1297.794,223.17
1297.974,223.14
1298.114,223.13
1298.294,223.1
1298.434,223.09
1298.614,223.06
1298.754,223.05
1298.934,223.02
1299.074,223.01
1299.254,222.98
1299.394,222.97
1299.574,222.94
1299.714,222.93
1299.834,222.91
1300.054,222.89
1300.154,222.87
1300.374,222.85
1300.474,222.83
1300.694,222.81
1300.794,222.79
1301.014,222.77
1301.114,222.75
1301.274,222.74
1301.454,222.71
1301.594,222.7
1301.774,222.67
1301.914,222.66
1302.094,222.63
1302.234,222.62
1302.434,222.59
1302.574,222.58
1302.754,222.55
1302.894,222.54
1303.074,222.51
1303.314,222.49
1303.414,222.47
1303.554,222.46
1303.734,222.43
1303.874,222.42
1304.054,222.39
1304.214,222.38
1304.314,222.36
1304.534,222.34
1304.634,222.32
1304.874,222.3
1304.974,222.28
1305.114,222.27
1305.294,222.24
1305.534,222.22
1305.634,222.2
1305.774,222.19
1305.954,222.16
1306.194,222.14
1306.294,222.12
1306.434,222.11
1306.614,222.08
1306.774,222.07
1306.874,222.05
1307.094,222.03
1307.194,222.01
1307.354,222
1307.534,221.97
1307.674,221.96
1307.874,221.93
1308.014,221.92
1308.194,221.89
1308.354,221.88
1308.534,221.85
1308.674,221.84
1308.794,221.82
1309.014,221.8
1309.114,221.78
1309.354,221.76
1309.454,221.74
1309.594,221.73
1309.794,221.7
1309.934,221.69
1310.114,221.66
1310.274,221.65
1310.454,221.62
1310.694,221.6
1310.714,221.59
1310.934,221.57
1311.034,221.55
1311.194,221.54
1311.374,221.51
1311.534,221.5
1311.714,221.47
1311.874,221.46
1312.054,221.43
1312.294,221.41
1312.314,221.4
1312.534,221.38
1312.654,221.36
1312.794,221.35
1312.994,221.32
1313.134,221.31
1313.314,221.28
1313.474,221.27
1313.654,221.24
1313.814,221.23
1313.914,221.21
1314.074,221.2
1314.254,221.17
1314.414,221.16
1314.594,221.13
1314.754,221.12
1314.934,221.09
1315.094,221.08
1315.194,221.06
1315.434,221.04
1315.534,221.02
1315.694,221.01
1315.874,220.98
1316.034,220.97
1316.214,220.94
1316.374,220.93
1316.474,220.91
1316.634,220.9
1316.814,220.87
1316.974,220.86
1317.154,220.83
1317.314,220.82
1317.434,220.8
1317.654,220.78
1317.754,220.76
1317.914,220.75
1318.114,220.72
1318.354,220.7
1318.454,220.68
1318.694,220.66
1318.714,220.65
1318.954,220.63
1319.054,220.61
1319.214,220.6
1319.394,220.57
1319.554,220.56
1319.674,220.54
1319.894,220.52
1320.014,220.5
1320.254,220.48
1320.354,220.46
1320.514,220.45
1320.694,220.42
1320.854,220.41
1320.954,220.39
1321.114,220.38
1321.314,220.35
1321.554,220.33
1321.654,220.31
1321.814,220.3
1321.914,220.28
1322.074,220.27
1322.274,220.24
1322.514,220.22
1322.614,220.2
1322.774,220.19
1322.874,220.17
1323.034,220.16
1323.314,220.12
1323.394,220.12
1323.574,220.09
1323.734,220.08
1323.834,220.06
1324.094,220.04
1324.194,220.02
1324.354,220.01
1324.474,219.99
1324.694,219.97
1324.894,219.94
1324.974,219.94
1325.154,219.91
1325.314,219.9
1325.514,219.87
1325.674,219.86
1325.774,219.84
1326.034,219.82
1326.134,219.8
1326.294,219.79
1326.394,219.77
1326.654,219.75
1326.754,219.73
1326.914,219.72
1327.114,219.69
1327.274,219.68
1327.374,219.66
1327.534,219.65
1327.814,219.61
1327.894,219.61
1327.994,219.59
1328.154,219.58
1328.434,219.54
1328.514,219.54
1328.714,219.51
1328.874,219.5
1328.974,219.48
1329.234,219.46
1329.334,219.44
1329.494,219.43
1329.594,219.41
1329.754,219.4
1329.954,219.37
1330.114,219.36
1330.314,219.33
1330.394,219.33
1330.674,219.29
1330.754,219.29
1330.954,219.26
1331.114,219.25
1331.214,219.23
1331.374,219.22
1331.574,219.19
1331.734,219.18
1331.934,219.15
1332.014,219.15
1332.294,219.11
1332.374,219.11
1332.474,219.09
1332.634,219.08
1332.834,219.05
1333.094,219.03
1333.114,219.02
1333.274,219.01
1333.554,218.97
1333.634,218.97
1333.834,218.94
1333.914,218.94
1334.194,218.9
1334.274,218.9
1334.474,218.87
1334.634,218.86
1334.734,218.84
1334.914,218.83
1335.114,218.8
1335.274,218.79
1335.374,218.77
1335.534,218.76
1335.754,218.73
1335.914,218.72
1336.014,218.7
1336.174,218.69
1336.394,218.66
1336.554,218.65
1336.654,218.63
1336.814,218.62
1337.034,218.59
1337.194,218.58
1337.294,218.56
1337.474,218.55
1337.674,218.52
1337.834,218.51
1338.034,218.48
1338.114,218.48
1338.314,218.45
1338.394,218.45
1338.674,218.41
1338.754,218.41
1338.954,218.38
1339.034,218.38
1339.234,218.35
1339.494,218.33
1339.514,218.32
1339.674,218.31
1339.874,218.28
1340.054,218.27
1340.154,218.25
1340.314,218.24
1340.614,218.2
1340.694,218.2
1340.894,218.17
1340.974,218.17
1341.174,218.14
1341.334,218.13
1341.454,218.11
1341.614,218.1
1341.834,218.07
1341.994,218.06
1342.194,218.03
1342.274,218.03
1342.474,218
1342.554,218
1342.754,217.97
1342.934,217.96
1343.034,217.94
1343.214,217.93
1343.414,217.9
1343.574,217.89
1343.694,217.87
1343.854,217.86
1344.074,217.83
1344.154,217.83
1344.354,217.8
1344.514,217.79
1344.634,217.77
1344.794,217.76
1345.094,217.72
1345.174,217.72
1345.294,217.7
1345.454,217.69
1345.674,217.66
1345.834,217.65
1345.954,217.63
1346.114,217.62
1346.234,217.6
1346.394,217.59
1346.614,217.56
1346.774,217.55
1346.894,217.53
1347.074,217.52
1347.274,217.49
1347.354,217.49
1347.554,217.46
1347.734,217.45
1347.834,217.43
1348.014,217.42
1348.214,217.39
1348.394,217.38
1348.594,217.35
1348.674,217.35
1348.794,217.33
1348.974,217.32
1349.174,217.29
1349.354,217.28
1349.454,217.26
1349.634,217.25
1349.834,217.22
1349.914,217.22
1350.134,217.19
1350.294,217.18
1350.414,217.16
1350.594,217.15
1350.794,217.12
1350.874,217.12
1351.174,217.08
1351.254,217.08
1351.374,217.06
1351.554,217.05
1351.754,217.02
1351.834,217.02
1352.134,216.98
1352.214,216.98
1352.334,216.96
1352.514,216.95
1352.714,216.92
1352.794,216.92
1353.014,216.89
1353.174,216.88
1353.294,216.86
1353.474,216.85
1353.594,216.83
1353.754,216.82
1353.974,216.79
1354.154,216.78
1354.354,216.75
1354.434,216.75
1354.554,216.73
1354.734,216.72
1354.954,216.69
1355.114,216.68
1355.234,216.66
1355.414,216.65
1355.534,216.63
1355.694,216.62
1355.914,216.59
1355.994,216.59
1356.214,216.56
1356.394,216.55
1356.494,216.53
1356.674,216.52
1356.794,216.5
1356.974,216.49
1357.194,216.46
1357.274,216.46
1357.474,216.43
1357.654,216.42
1357.774,216.4
1357.954,216.39
1358.074,216.37
1358.234,216.36
1358.454,216.33
1358.634,216.32
1358.754,216.3
1358.934,216.29
1359.054,216.27
1359.234,216.26
1359.434,216.23
1359.514,216.23
1359.734,216.2
1359.914,216.19
1360.034,216.17
1360.214,216.16
1360.334,216.14
1360.514,216.13
1360.634,216.11
1360.814,216.1
1361.014,216.07
1361.194,216.06
1361.314,216.04
1361.494,216.03
1361.614,216.01
1361.794,216
1361.914,215.98
1362.094,215.97
1362.314,215.94
1362.394,215.94
1362.614,215.91
1362.794,215.9
1362.914,215.88
1363.094,215.87
1363.214,215.85
1363.394,215.84
1363.514,215.82
1363.694,215.81
1363.914,215.78
1363.994,215.78
1364.214,215.75
1364.394,215.74
1364.514,215.72
1364.694,215.71
1364.814,215.69
1364.994,215.68
1365.114,215.66
1365.294,215.65
1365.514,215.62
1365.594,215.62
1365.814,215.59
1365.994,215.58
1366.114,215.56
1366.294,215.55
1366.414,215.53
1366.594,215.52
1366.714,215.5
1366.894,215.49
1367.114,215.46
1367.194,215.46
1367.414,215.43
1367.594,215.42
1367.714,215.4
1367.894,215.39
1368.034,215.37
1368.214,215.36
1368.334,215.34
1368.514,215.33
1368.634,215.31
1368.814,215.3
1369.034,215.27
1369.114,215.27
1369.334,215.24
1369.534,215.23
1369.654,215.21
1369.834,215.2
1369.954,215.18
1370.134,215.17
1370.254,215.15
1370.434,215.14
1370.554,215.12
1370.754,215.11
1370.874,215.09
1371.054,215.08
1371.274,215.05
1371.354,215.05
1371.594,215.02
1371.674,215.02
1371.894,214.99
1372.074,214.98
1372.194,214.96
1372.374,214.95
1372.514,214.93
1372.694,214.92
1372.814,214.9
1372.994,214.89
1373.114,214.87
1373.314,214.86
1373.434,214.84
1373.614,214.83
1373.834,214.8
1373.934,214.8
1374.154,214.77
1374.234,214.77
1374.454,214.74
1374.554,214.74
1374.774,214.71
1374.954,214.7
1375.074,214.68
1375.274,214.67
1375.394,214.65
1375.574,214.64
1375.694,214.62
1375.894,214.61
1376.014,214.59
1376.194,214.58
1376.314,214.56
1376.514,214.55
1376.634,214.53
1376.934,214.51
1376.954,214.5
1377.134,214.49
1377.354,214.46
1377.454,214.46
1377.674,214.43
1377.754,214.43
1377.994,214.4
1378.074,214.4
1378.294,214.37
1378.394,214.37
1378.614,214.34
1378.794,214.33
1378.934,214.31
1379.114,214.3
1379.234,214.28
1379.434,214.27
1379.554,214.25
1379.754,214.24
1379.874,214.22
1380.054,214.21
1380.194,214.19
1380.374,214.18
1380.494,214.16
1380.694,214.15
1380.814,214.13
1381.014,214.12
1381.134,214.1
1381.314,214.09
1381.454,214.07
1381.634,214.06
1381.774,214.04
1381.954,214.03
1382.074,214.01
1382.274,214
1382.394,213.98
1382.594,213.97
1382.714,213.95
1382.914,213.94
1383.034,213.92
1383.234,213.91
1383.354,213.89
1383.554,213.88
1383.674,213.86
1383.974,213.84
1383.994,213.83
1384.294,213.81
1384.314,213.8
1384.614,213.78
1384.634,213.77
1384.934,213.75
1384.954,213.74
1385.254,213.72
1385.274,213.71
1385.574,213.69
1385.594,213.68
1385.894,213.66
1385.914,213.65
1386.214,213.63
1386.234,213.62
1386.534,213.6
1386.554,213.59
1386.854,213.57
1386.874,213.56
1387.074,213.55
1387.194,213.53
1387.394,213.52
1387.514,213.5
1387.714,213.49
1387.834,213.47
1388.034,213.46
1388.154,213.44
1388.354,213.43
1388.474,213.41
1388.674,213.4
1388.814,213.38
1388.994,213.37
1389.234,213.34
1389.334,213.34
1389.454,213.32
1389.654,213.31
1389.774,213.29
1389.974,213.28
1390.094,213.26
1390.294,213.25
1390.434,213.23
1390.634,213.22
1390.754,213.2
1390.954,213.19
1391.074,213.17
1391.274,213.16
1391.394,213.14
1391.594,213.13
1391.734,213.11
1391.934,213.1
1392.054,213.08
1392.154,213.08
1392.374,213.05
1392.474,213.05
1392.714,213.02
1392.794,213.02
1393.034,212.99
1393.134,212.99
1393.274,212.97
1393.574,212.95
1393.594,212.94
1393.894,212.92
1393.914,212.91
1394.114,212.9
1394.234,212.88
1394.434,212.87
1394.674,212.84
1394.774,212.84
1394.894,212.82
1395.094,212.81
1395.234,212.79
1395.434,212.78
1395.554,212.76
1395.754,212.75
1395.894,212.73
1396.094,212.72
1396.214,212.7
1396.314,212.7
1396.554,212.67
1396.634,212.67
1396.874,212.64
1396.974,212.64
1397.214,212.61
1397.314,212.61
1397.434,212.59
1397.634,212.58
1397.774,212.56
1397.974,212.55
1398.094,212.53
1398.294,212.52
1398.434,212.5
1398.634,212.49
1398.774,212.47
1398.974,212.46
1399.094,212.44
1399.194,212.44
1399.434,212.41
1399.534,212.41
1399.674,212.39
1399.974,212.37
1399.994,212.36
1400.194,212.35
1400.434,212.32
1400.534,212.32
1400.654,212.3
1400.874,212.29
1400.994,212.27
1401.194,212.26
1401.334,212.24
1401.534,212.23
1401.674,212.21
1401.754,212.21
1402.014,212.18
1402.094,212.18
1402.334,212.15
1402.434,212.15
1402.674,212.12
1402.774,212.12
1402.894,212.1
1403.114,212.09
1403.234,212.07
1403.454,212.06
1403.574,212.04
1403.674,212.04
1403.914,212.01
1404.014,212.01
1404.254,211.98
1404.354,211.98
1404.474,211.96
1404.694,211.95
1404.814,211.93
1405.034,211.92
1405.154,211.9
1405.374,211.89
1405.494,211.87
1405.594,211.87
1405.834,211.84
1405.934,211.84
1406.174,211.81
1406.274,211.81
1406.514,211.78
1406.614,211.78
1406.754,211.76
1406.954,211.75
1407.094,211.73
1407.194,211.73
1407.434,211.7
1407.534,211.7
1407.774,211.67
1407.874,211.67
1408.114,211.64
1408.214,211.64
1408.354,211.62
1408.554,211.61
1408.694,211.59
1408.794,211.59
1409.034,211.56
1409.134,211.56
1409.374,211.53
1409.474,211.53
1409.714,211.5
1409.814,211.5
1409.954,211.48
1410.154,211.47
1410.294,211.45
1410.394,211.45
1410.634,211.42
1410.734,211.42
1410.874,211.4
1411.074,211.39
1411.214,211.37
1411.434,211.36
1411.554,211.34
1411.774,211.33
1411.914,211.31
1412.014,211.31
1412.254,211.28
1412.354,211.28
1412.494,211.26
1412.694,211.25
1412.834,211.23
1413.054,211.22
1413.174,211.2
1413.274,211.2
1413.534,211.17
1413.634,211.17
1413.754,211.15
1413.974,211.14
1414.114,211.12
1414.334,211.11
1414.454,211.09
1414.554,211.09
1414.814,211.06
1414.914,211.06
1415.154,211.03
1415.254,211.03
1415.394,211.01
1415.614,211
1415.754,210.98
1415.834,210.98
1416.094,210.95
1416.194,210.95
1416.334,210.93
1416.534,210.92
1416.674,210.9
1416.894,210.89
1417.034,210.87
1417.134,210.87
1417.274,210.85
1417.474,210.84
1417.614,210.82
1417.834,210.81
1417.974,210.79
1418.074,210.79
1418.334,210.76
1418.414,210.76
1418.554,210.74
1418.774,210.73
1418.914,210.71
1419.134,210.7
1419.274,210.68
1419.374,210.68
1419.614,210.65
1419.714,210.65
1419.854,210.63
1420.074,210.62
1420.214,210.6
1420.314,210.6
1420.574,210.57
1420.674,210.57
1420.814,210.55
1421.014,210.54
1421.154,210.52
1421.374,210.51
1421.514,210.49
1421.614,210.49
1421.754,210.47
1421.974,210.46
1422.114,210.44
1422.334,210.43
1422.474,210.41
1422.574,210.41
1422.714,210.39
1422.934,210.38
1423.074,210.36
1423.294,210.35
1423.434,210.33
1423.534,210.33
1423.674,210.31
1423.894,210.3
1424.014,210.28
1424.234,210.27
1424.374,210.25
1424.474,210.25
1424.734,210.22
1424.834,210.22
1424.974,210.2
1425.194,210.19
1425.334,210.17
1425.434,210.17
1425.594,210.15
1425.814,210.14
1425.954,210.12
1426.174,210.11
1426.314,210.09
1426.414,210.09
1426.554,210.07
1426.774,210.06
1426.914,210.04
1427.134,210.03
1427.274,210.01
1427.374,210.01
1427.514,209.99
1427.734,209.98
1427.874,209.96
1428.094,209.95
1428.234,209.93
1428.334,209.93
1428.474,209.91
1428.714,209.9
1428.854,209.88
1428.954,209.88
1429.214,209.85
1429.314,209.85
1429.454,209.83
1429.674,209.82
1429.814,209.8
1429.914,209.8
1430.074,209.78
1430.294,209.77
1430.434,209.75
1430.654,209.74
1430.794,209.72
1430.894,209.72
1431.034,209.7
1431.254,209.69
1431.414,209.67
1431.514,209.67
1431.774,209.64
1431.874,209.64
1432.014,209.62
1432.234,209.61
1432.394,209.59
1432.494,209.59
1432.634,209.57
1432.854,209.56
1432.994,209.54
1433.234,209.53
1433.374,209.51
1433.474,209.51
1433.614,209.49
1433.834,209.48
1433.974,209.46
1434.094,209.46
1434.234,209.44
1434.454,209.43
1434.594,209.41
1434.834,209.4
1434.974,209.38
1435.074,209.38
1435.214,209.36
1435.454,209.35
1435.594,209.33
1435.694,209.33
1435.834,209.31
1436.074,209.3
1436.214,209.28
1436.314,209.28
1436.574,209.25
1436.694,209.25
1436.834,209.23
1437.054,209.22
1437.194,209.2
1437.314,209.2
1437.454,209.18
1437.674,209.17
1437.814,209.15
1437.934,209.15
1438.074,209.13
1438.294,209.12
1438.454,209.1
1438.554,209.1
1438.814,209.07
1438.934,209.07
1439.074,209.05
1439.294,209.04
1439.454,209.02
1439.554,209.02
1439.694,209
1439.934,208.99
1440.074,208.97
1440.174,208.97
1440.334,208.95
1440.554,208.94
1440.694,208.92
1440.814,208.92
1440.954,208.9
1441.174,208.89
1441.334,208.87
1441.434,208.87
1441.594,208.85
1441.814,208.84
1441.954,208.82
1442.074,208.82
1442.334,208.79
1442.434,208.79
1442.594,208.77
1442.814,208.76
1442.974,208.74
1443.074,208.74
1443.214,208.72
1443.454,208.71
1443.594,208.69
1443.714,208.69
1443.854,208.67
1444.094,208.66
1444.234,208.64
1444.334,208.64
1444.494,208.62
1444.714,208.61
1444.874,208.59
1444.974,208.59
1445.134,208.57
1445.354,208.56
1445.514,208.54
1445.614,208.54
1445.754,208.52
1445.994,208.51
1446.134,208.49
1446.254,208.49
1446.394,208.47
1446.634,208.46
1446.774,208.44
1446.894,208.44
1447.034,208.42
1447.274,208.41
1447.414,208.39
1447.534,208.39
1447.674,208.37
1447.914,208.36
1448.054,208.34
1448.174,208.34
1448.314,208.32
1448.554,208.31
1448.714,208.29
1448.814,208.29
1448.954,208.27
1449.194,208.26
1449.354,208.24
1449.454,208.24
1449.614,208.22
1449.834,208.21
1449.994,208.19
1450.094,208.19
1450.254,208.17
1450.494,208.16
1450.634,208.14
1450.754,208.14
1450.894,208.12
1451.134,208.11
1451.274,208.09
1451.394,208.09
1451.534,208.07
1451.774,208.06
1451.934,208.04
1452.034,208.04
1452.194,208.02
1452.434,208.01
1452.574,207.99
1452.694,207.99
1452.834,207.97
1452.954,207.97
1453.114,207.95
1453.334,207.94
1453.494,207.92
1453.594,207.92
1453.754,207.9
1453.994,207.89
1454.134,207.87
1454.254,207.87
1454.394,207.85
1454.654,207.84
1454.794,207.82
1454.914,207.82
1455.054,207.8
1455.294,207.79
1455.454,207.77
1455.554,207.77
1455.714,207.75
1455.954,207.74
1455.994,207.73
1456.214,207.72
1456.374,207.7
1456.474,207.7
1456.634,207.68
1456.874,207.67
1457.034,207.65
1457.134,207.65
1457.294,207.63
1457.534,207.62
1457.674,207.6
1457.794,207.6
1457.954,207.58
1458.194,207.57
1458.334,207.55
1458.454,207.55
1458.614,207.53
1458.714,207.53
1458.874,207.51
1459.114,207.5
1459.274,207.48
1459.374,207.48
1459.534,207.46
1459.774,207.45
1459.934,207.43
1460.034,207.43
1460.194,207.41
1460.314,207.41
1460.474,207.39
1460.714,207.38
1460.854,207.36
1460.974,207.36
1461.134,207.34
1461.374,207.33
1461.534,207.31
1461.634,207.31
1461.794,207.29
1461.914,207.29
1462.074,207.27
1462.314,207.26
1462.454,207.24
1462.574,207.24
1462.734,207.22
1462.974,207.21
1463.134,207.19
1463.234,207.19
1463.394,207.17
1463.514,207.17
1463.674,207.15
1463.914,207.14
1464.074,207.12
1464.174,207.12
1464.334,207.1
1464.574,207.09
1464.734,207.07
1464.854,207.07
1465.014,207.05
1465.114,207.05
1465.274,207.03
1465.514,207.02
1465.674,207
1465.794,207
1465.954,206.98
1466.194,206.97
1466.234,206.96
1466.474,206.95
1466.614,206.93
1466.734,206.93
1466.894,206.91
1467.134,206.9
1467.294,206.88
1467.414,206.88
1467.574,206.86
1467.694,206.86
1467.834,206.84
1468.094,206.83
1468.254,206.81
1468.354,206.81
1468.514,206.79
1468.634,206.79
1468.794,206.77
1469.034,206.76
1469.194,206.74
1469.314,206.74
1469.474,206.72
1469.594,206.72
1469.754,206.7
1469.994,206.69
1470.154,206.67
1470.274,206.67
1470.434,206.65
1470.674,206.64
1470.714,206.63
1470.954,206.62
1471.114,206.6
1471.234,206.6
1471.374,206.58
1471.634,206.57
1471.674,206.56
1471.914,206.55
1472.074,206.53
1472.174,206.53
1472.334,206.51
1472.594,206.5
1472.634,206.49
1472.874,206.48
1473.034,206.46
1473.154,206.46
1473.294,206.44
1473.554,206.43
1473.594,206.42
1473.834,206.41
1473.994,206.39
1474.114,206.39
1474.274,206.37
1474.394,206.37
1474.554,206.35
1474.794,206.34
1474.954,206.32
1475.074,206.32
1475.234,206.3
1475.354,206.3
1475.514,206.28
1475.774,206.27
1475.934,206.25
1476.054,206.25
1476.214,206.23
1476.314,206.23
1476.474,206.21
1476.734,206.2
1476.894,206.18
1477.014,206.18
1477.174,206.16
1477.294,206.16
1477.454,206.14
1477.714,206.13
1477.754,206.12
1477.994,206.11
1478.154,206.09
1478.274,206.09
1478.434,206.07
1478.554,206.07
1478.714,206.05
1478.974,206.04
1479.134,206.02
1479.254,206.02
1479.414,206
1479.534,206
1479.694,205.98
1479.954,205.97
1479.994,205.96
1480.234,205.95
1480.394,205.93
1480.514,205.93
1480.674,205.91
1480.794,205.91
1480.954,205.89
1481.214,205.88
1481.374,205.86
1481.494,205.86
1481.654,205.84
1481.774,205.84
1481.934,205.82
1482.194,205.81
1482.234,205.8
1482.474,205.79
1482.634,205.77
1482.754,205.77
1482.914,205.75
1483.054,205.75
1483.214,205.73
1483.474,205.72
1483.514,205.71
1483.754,205.7
1483.914,205.68
1484.034,205.68
1484.194,205.66
1484.314,205.66
1484.474,205.64
1484.754,205.63
1484.794,205.62
1485.034,205.61
1485.194,205.59
1485.314,205.59
1485.474,205.57
1485.594,205.57
1485.754,205.55
1486.034,205.54
1486.074,205.53
1486.314,205.52
1486.474,205.5
1486.594,205.5
1486.754,205.48
1486.874,205.48
1487.034,205.46
1487.314,205.45
1487.354,205.44
1487.594,205.43
1487.754,205.41
1487.874,205.41
1488.054,205.39
1488.174,205.39
1488.334,205.37
1488.594,205.36
1488.634,205.35
1488.894,205.34
1489.054,205.32
1489.174,205.32
1489.334,205.3
1489.454,205.3
1489.614,205.28
1489.754,205.28
1489.914,205.26
1490.174,205.25
1490.334,205.23
1490.474,205.23
1490.634,205.21
1490.754,205.21
1490.914,205.19
1491.054,205.19
1491.214,205.17
1491.474,205.16
1491.634,205.14
1491.774,205.14
1491.934,205.12
1492.054,205.12
1492.214,205.1
1492.354,205.1
1492.514,205.08
1492.634,205.08
1492.794,205.06
1493.074,205.05
1493.114,205.04
1493.354,205.03
1493.534,205.01
1493.654,205.01
1493.814,204.99
1493.934,204.99
1494.114,204.97
1494.234,204.97
1494.394,204.95
1494.674,204.94
1494.834,204.92
1494.974,204.92
1495.134,204.9
1495.254,204.9
1495.414,204.88
1495.554,204.88
1495.714,204.86
1495.834,204.86
1496.014,204.84
1496.274,204.83
1496.314,204.82
1496.574,204.81
1496.734,204.79
1496.874,204.79
1497.034,204.77
1497.154,204.77
1497.334,204.75
1497.454,204.75
1497.614,204.73
1497.754,204.73
1497.914,204.71
1498.194,204.7
1498.234,204.69
1498.474,204.68
1498.654,204.66
1498.774,204.66
1498.954,204.64
1499.074,204.64
1499.234,204.62
1499.374,204.62
1499.534,204.6
1499.814,204.59
1499.834,204.58
1500.114,204.57
1500.154,204.56
1500.394,204.55
1500.574,204.53
1500.694,204.53
1500.874,204.51
1500.994,204.51
1501.174,204.49
1501.294,204.49
1501.454,204.47
1501.594,204.47
1501.754,204.45
1502.034,204.44
1502.074,204.43
1502.334,204.42
1502.494,204.4
1502.634,204.4
1502.794,204.38
1502.934,204.38
1503.094,204.36
1503.234,204.36
1503.394,204.34
1503.534,204.34
1503.694,204.32
1503.834,204.32
1503.994,204.3
1504.274,204.29
1504.314,204.28
1504.574,204.27
1504.734,204.25
1504.874,204.25
1505.034,204.23
1505.174,204.23
1505.334,204.21
1505.474,204.21
1505.634,204.19
1505.774,204.19
1505.934,204.17
1506.074,204.17
1506.234,204.15
1506.534,204.14
1506.554,204.13
1506.834,204.12
1506.994,204.1
1507.134,204.1
1507.294,204.08
1507.434,204.08
1507.594,204.06
1507.734,204.06
1507.894,204.04
1508.034,204.04
1508.194,204.02
1508.334,204.02
1508.514,204
1508.634,204
1508.814,203.98
1509.094,203.97
1509.114,203.96
1509.394,203.95
1509.434,203.94
1509.694,203.93
1509.874,203.91
1509.994,203.91
1510.174,203.89
1510.314,203.89
1510.474,203.87
1510.614,203.87
1510.774,203.85
1510.914,203.85
1511.094,203.83
1511.214,203.83
1511.394,203.81
1511.514,203.81
1511.694,203.79
1511.834,203.79
1511.994,203.77
1512.294,203.76
1512.314,203.75
1512.594,203.74
1512.634,203.73
1512.894,203.72
1513.074,203.7
1513.214,203.7
1513.374,203.68
1513.514,203.68
1513.694,203.66
1513.814,203.66
1513.994,203.64
1514.134,203.64
1514.294,203.62
1514.434,203.62
1514.614,203.6
1514.734,203.6
1514.914,203.58
1515.054,203.58
1515.214,203.56
1515.354,203.56
1515.534,203.54
1515.814,203.53
1515.834,203.52
1516.134,203.51
1516.154,203.5
1516.434,203.49
1516.474,203.48
1516.754,203.47
1516.914,203.45
1517.054,203.45
1517.234,203.43
1517.354,203.43
1517.534,203.41
1517.674,203.41
1517.854,203.39
1517.974,203.39
1518.154,203.37
1518.294,203.37
1518.474,203.35
1518.614,203.35
1518.774,203.33
1518.914,203.33
1519.094,203.31
1519.234,203.31
1519.394,203.29
1519.534,203.29
1519.714,203.27
1519.854,203.27
1520.034,203.25
1520.154,203.25
1520.334,203.23
1520.474,203.23
1520.654,203.21
1520.794,203.21
1520.954,203.19
1521.254,203.18
1521.274,203.17
1521.574,203.16
1521.594,203.15
1521.874,203.14
1521.914,203.13
1522.194,203.12
1522.234,203.11
1522.514,203.1
1522.554,203.09
1522.814,203.08
1522.994,203.06
1523.134,203.06
1523.314,203.04
1523.454,203.04
1523.634,203.02
1523.774,203.02
1523.934,203
1524.074,203
1524.254,202.98
1524.394,202.98
1524.574,202.96
1524.714,202.96
1524.894,202.94
1525.034,202.94
1525.214,202.92
1525.354,202.92
1525.514,202.9
1525.654,202.9
1525.834,202.88
1525.974,202.88
1526.154,202.86
1526.294,202.86
1526.474,202.84
1526.614,202.84
1526.794,202.82
1526.934,202.82
1527.114,202.8
1527.254,202.8
1527.434,202.78
1527.574,202.78
1527.734,202.76
1527.874,202.76
1528.054,202.74
1528.194,202.74
1528.374,202.72
1528.514,202.72
1528.694,202.7
1528.834,202.7
1529.014,202.68
1529.154,202.68
1529.334,202.66
1529.474,202.66
1529.654,202.64
1529.794,202.64
1529.974,202.62
1530.114,202.62
1530.294,202.6
1530.434,202.6
1530.614,202.58
1530.754,202.58
1530.934,202.56
1531.074,202.56
1531.254,202.54
1531.394,202.54
1531.574,202.52
1531.714,202.52
1531.894,202.5
1532.034,202.5
1532.214,202.48
1532.374,202.48
1532.554,202.46
1532.694,202.46
1532.874,202.44
1533.014,202.44
1533.194,202.42
1533.334,202.42
1533.514,202.4
1533.654,202.4
1533.834,202.38
1533.974,202.38
1534.154,202.36
1534.294,202.36
1534.474,202.34
1534.634,202.34
1534.814,202.32
1534.954,202.32
1535.134,202.3
1535.274,202.3
1535.454,202.28
1535.594,202.28
1535.774,202.26
1535.914,202.26
1536.114,202.24
1536.254,202.24
1536.434,202.22
1536.574,202.22
1536.754,202.2
1536.894,202.2
1537.074,202.18
1537.234,202.18
1537.274,202.17
1537.554,202.16
1537.594,202.15
1537.874,202.14
1537.914,202.13
1538.214,202.12
1538.234,202.11
1538.534,202.1
1538.554,202.09
1538.854,202.08
1538.874,202.07
1539.174,202.06
1539.214,202.05
1539.354,202.05
1539.534,202.03
1539.674,202.03
1539.854,202.01
1540.014,202.01
1540.194,201.99
1540.334,201.99
1540.514,201.97
1540.674,201.97
1540.854,201.95
1540.994,201.95
1541.174,201.93
1541.314,201.93
1541.514,201.91
1541.654,201.91
1541.834,201.89
1541.974,201.89
1542.174,201.87
1542.314,201.87
1542.494,201.85
1542.634,201.85
1542.834,201.83
1542.974,201.83
1543.154,201.81
1543.314,201.81
1543.354,201.8
1543.634,201.79
1543.674,201.78
1543.974,201.77
1543.994,201.76
1544.294,201.75
1544.314,201.74
1544.474,201.74
1544.654,201.72
1544.794,201.72
1544.994,201.7
1545.134,201.7
1545.314,201.68
1545.454,201.68
1545.654,201.66
1545.794,201.66
1545.974,201.64
1546.134,201.64
1546.314,201.62
1546.454,201.62
1546.654,201.6
1546.794,201.6
1546.994,201.58
1547.134,201.58
1547.314,201.56
1547.474,201.56
1547.514,201.55
1547.814,201.53
1547.974,201.53
1547.994,201.52
1548.294,201.51
1548.334,201.5
1548.474,201.5
1548.654,201.48
1548.814,201.48
1548.994,201.46
1549.134,201.46
1549.334,201.44
1549.474,201.44
1549.674,201.42
1549.814,201.42
1550.014,201.4
1550.154,201.4
1550.334,201.38
1550.494,201.38
1550.674,201.36
1550.834,201.36
1550.874,201.35
1551.174,201.34
1551.194,201.33
1551.494,201.32
1551.514,201.31
1551.674,201.31
1551.854,201.29
1552.014,201.29
1552.194,201.27
1552.354,201.27
1552.534,201.25
1552.694,201.25
1552.874,201.23
1553.034,201.23
1553.214,201.21
1553.374,201.21
1553.554,201.19
1553.714,201.19
1553.754,201.18
1554.054,201.17
1554.074,201.16
1554.374,201.15
1554.414,201.14
1554.554,201.14
1554.754,201.12
1554.894,201.12
1555.094,201.1
1555.234,201.1
1555.434,201.08
1555.574,201.08
1555.774,201.06
1555.914,201.06
1556.114,201.04
1556.274,201.04
1556.314,201.03
1556.614,201.02
1556.634,201.01
1556.934,201
1556.974,200.99
1557.114,200.99
1557.314,200.97
1557.474,200.97
1557.654,200.95
1557.814,200.95
1557.994,200.93
1558.154,200.93
1558.354,200.91
1558.494,200.91
1558.554,200.9
1558.854,200.88
1559.014,200.88
1559.034,200.87
1559.194,200.87
1559.374,200.85
1559.534,200.85
1559.714,200.83
1559.874,200.83
1560.074,200.81
1560.214,200.81
1560.414,200.79
1560.574,200.79
1560.754,200.77
1560.914,200.77
1560.954,200.76
1561.254,200.75
1561.274,200.74
1561.434,200.74
1561.634,200.72
1561.774,200.72
1561.974,200.7
1562.134,200.7
1562.314,200.68
1562.474,200.68
1562.674,200.66
1562.814,200.66
1563.014,200.64
1563.174,200.64
1563.194,200.63
1563.354,200.63
1563.534,200.61
1563.694,200.61
1563.894,200.59
1564.034,200.59
1564.234,200.57
1564.394,200.57
1564.594,200.55
1564.734,200.55
1564.934,200.53
1565.094,200.53
1565.114,200.52
1565.274,200.52
1565.454,200.5
1565.614,200.5
1565.814,200.48
1565.974,200.48
1566.154,200.46
1566.314,200.46
1566.514,200.44
1566.674,200.44
1566.714,200.43
1567.014,200.42
1567.034,200.41
1567.194,200.41
1567.394,200.39
1567.554,200.39
1567.734,200.37
1567.894,200.37
1568.094,200.35
1568.254,200.35
1568.314,200.34
1568.614,200.32
1568.774,200.32
1568.794,200.31
1568.954,200.31
1569.154,200.29
1569.314,200.29
1569.514,200.27
1569.654,200.27
1569.854,200.25
1570.014,200.25
1570.214,200.23
1570.374,200.23
1570.394,200.22
1570.554,200.22
1570.754,200.2
1570.914,200.2
1571.094,200.18
1571.254,200.18
1571.454,200.16
1571.614,200.16
1571.814,200.14
1571.974,200.14
1571.994,200.13
1572.154,200.13
1572.354,200.11
1572.514,200.11
1572.694,200.09
1572.854,200.09
1573.054,200.07
1573.214,200.07
1573.414,200.05
1573.574,200.05
1573.594,200.04
1573.754,200.04
1573.954,200.02
1574.114,200.02
1574.314,200
1574.474,200
1574.674,199.98
1574.834,199.98
1574.874,199.97
1575.174,199.96
1575.214,199.95
1575.374,199.95
1575.574,199.93
1575.734,199.93
1575.934,199.91
1576.094,199.91
1576.294,199.89
1576.454,199.89
1576.474,199.88
1576.634,199.88
1576.834,199.86
1576.994,199.86
1577.194,199.84
1577.354,199.84
1577.554,199.82
1577.714,199.82
1577.754,199.81
1578.054,199.8
1578.094,199.79
1578.254,199.79
1578.454,199.77
1578.614,199.77
1578.814,199.75
1578.974,199.75
1579.174,199.73
1579.334,199.73
1579.354,199.72
1579.514,199.72
1579.714,199.7
1579.874,199.7
1580.074,199.68
1580.234,199.68
1580.434,199.66
1580.594,199.66
1580.634,199.65
1580.794,199.65
1580.994,199.63
1581.154,199.63
1581.354,199.61
1581.514,199.61
1581.714,199.59
1581.874,199.59
1581.914,199.58
1582.214,199.57
1582.254,199.56
1582.434,199.56
1582.634,199.54
1582.794,199.54
1582.994,199.52
1583.154,199.52
1583.194,199.51
1583.494,199.5
1583.534,199.49
1583.714,199.49
1583.914,199.47
1584.074,199.47
1584.274,199.45
1584.434,199.45
1584.474,199.44
1584.774,199.43
1584.834,199.42
1584.994,199.42
1585.194,199.4
1585.354,199.4
1585.554,199.38
1585.734,199.38
1585.754,199.37
1585.914,199.37
1586.114,199.35
1586.274,199.35
1586.474,199.33
1586.654,199.33
1586.854,199.31
1587.014,199.31
1587.034,199.3
1587.194,199.3
1587.414,199.28
1587.574,199.28
1587.774,199.26
1587.934,199.26
1587.994,199.25
1588.294,199.24
1588.334,199.23
1588.494,199.23
1588.694,199.21
1588.874,199.21
1589.074,199.19
1589.234,199.19
1589.274,199.18
1589.574,199.17
1589.634,199.16
1589.794,199.16
1589.994,199.14
1590.174,199.14
1590.374,199.12
1590.534,199.12
1590.554,199.11
1590.734,199.11
1590.934,199.09
1591.094,199.09
1591.314,199.07
1591.474,199.07
1591.514,199.06
1591.814,199.05
1591.874,199.04
1592.034,199.04
1592.234,199.02
1592.414,199.02
1592.614,199
1592.774,199
1592.794,198.99
1592.974,198.99
1593.174,198.97
1593.334,198.97
1593.554,198.95
1593.714,198.95
1593.754,198.94
1593.914,198.94
1594.114,198.92
1594.274,198.92
1594.494,198.9
1594.654,198.9
1594.714,198.89
1595.014,198.88
1595.054,198.87
1595.214,198.87
1595.434,198.85
1595.594,198.85
1595.814,198.83
1595.974,198.83
1595.994,198.82
1596.174,198.82
1596.374,198.8
1596.534,198.8
1596.754,198.78
1596.914,198.78
1596.954,198.77
1597.114,198.77
1597.314,198.75
1597.494,198.75
1597.694,198.73
1597.874,198.73
1597.914,198.72
1598.214,198.71
1598.274,198.7
1598.434,198.7
1598.654,198.68
1598.814,198.68
1598.874,198.67
1599.174,198.66
1599.214,198.65
1599.394,198.65
1599.594,198.63
1599.774,198.63
1599.974,198.61
1600.134,198.61
1600.174,198.6
1600.334,198.6
1600.554,198.58
1600.714,198.58
1600.934,198.56
1601.094,198.56
1601.114,198.55
1601.294,198.55
1601.514,198.53
1601.674,198.53
1601.894,198.51
1602.054,198.51
1602.074,198.5
1602.254,198.5
1602.454,198.48
1602.634,198.48
1602.854,198.46
1603.014,198.46
1603.034,198.45
1603.214,198.45
1603.414,198.43
1603.594,198.43
1603.814,198.41
1603.974,198.41
1603.994,198.4
1604.174,198.4
1604.374,198.38
1604.554,198.38
1604.774,198.36
1604.934,198.36
1604.954,198.35
1605.134,198.35
1605.354,198.33
1605.514,198.33
1605.734,198.31
1605.894,198.31
1605.934,198.3
1606.094,198.3
1606.314,198.28
1606.494,198.28
1606.694,198.26
1606.854,198.26
1606.894,198.25
1607.074,198.25
1607.274,198.23
1607.454,198.23
1607.514,198.22
1607.814,198.21
1607.874,198.2
1608.034,198.2
1608.254,198.18
1608.434,198.18
1608.474,198.17
1608.774,198.16
1608.834,198.15
1609.014,198.15
1609.234,198.13
1609.394,198.13
1609.434,198.12
1609.594,198.12
1609.814,198.1
1609.994,198.1
1610.194,198.08
1610.374,198.08
1610.394,198.07
1610.574,198.07
1610.794,198.05
1610.954,198.05
1611.174,198.03
1611.334,198.03
1611.374,198.02
1611.554,198.02
1611.774,198
1611.934,198
1611.994,197.99
1612.294,197.98
1612.354,197.97
1612.534,197.97
1612.754,197.95
1612.914,197.95
1612.954,197.94
1613.114,197.94
1613.334,197.92
1613.514,197.92
1613.734,197.9
1613.894,197.9
1613.934,197.89
1614.114,197.89
1614.314,197.87
1614.494,197.87
1614.554,197.86
1614.854,197.85
1614.914,197.84
1615.094,197.84
1615.314,197.82
1615.494,197.82
1615.514,197.81
1615.674,197.81
1615.894,197.79
1616.074,197.79
1616.294,197.77
1616.454,197.77
1616.494,197.76
1616.674,197.76
1616.894,197.74
1617.074,197.74
1617.114,197.73
1617.274,197.73
1617.494,197.71
1617.674,197.71
1617.894,197.69
1618.054,197.69
1618.094,197.68
1618.254,197.68
1618.474,197.66
1618.654,197.66
1618.714,197.65
1619.014,197.64
1619.074,197.63
1619.254,197.63
1619.474,197.61
1619.654,197.61
1619.674,197.6
1619.854,197.6
1620.074,197.58
1620.254,197.58
1620.314,197.57
1620.614,197.56
1620.674,197.55
1620.854,197.55
1621.074,197.53
1621.254,197.53
1621.274,197.52
1621.454,197.52
1621.674,197.5
1621.854,197.5
1621.914,197.49
1622.214,197.48
1622.274,197.47
1622.474,197.47
1622.694,197.45
1622.854,197.45
1622.894,197.44
1623.074,197.44
1623.294,197.42
1623.474,197.42
1623.514,197.41
1623.674,197.41
1623.894,197.39
1624.074,197.39
1624.294,197.37
1624.454,197.37
1624.494,197.36
1624.674,197.36
1624.894,197.34
1625.094,197.34
1625.114,197.33
1625.294,197.33
1625.514,197.31
1625.694,197.31
1625.754,197.3
1626.054,197.29
1626.114,197.28
1626.294,197.28
1626.514,197.26
1626.694,197.26
1626.734,197.25
1626.914,197.25
1627.134,197.23
1627.314,197.23
1627.354,197.22
1627.514,197.22
1627.734,197.2
1627.934,197.2
1627.994,197.19
1628.294,197.18
1628.354,197.17
1628.534,197.17
1628.754,197.15
1628.934,197.15
1628.974,197.14
1629.154,197.14
1629.374,197.12
1629.554,197.12
1629.594,197.11
1629.754,197.11
1629.994,197.09
1630.174,197.09
1630.234,197.08
1630.534,197.07
1630.594,197.06
1630.794,197.06
1631.014,197.04
1631.174,197.04
1631.214,197.03
1631.394,197.03
1631.634,197.01
1631.814,197.01
1631.834,197
1632.014,197
1632.254,196.98
1632.434,196.98
1632.474,196.97
1632.634,196.97
1632.854,196.95
1633.054,196.95
1633.114,196.94
1633.414,196.93
1633.474,196.92
1633.674,196.92
1633.894,196.9
1634.054,196.9
1634.094,196.89
1634.294,196.89
1634.514,196.87
1634.694,196.87
1634.714,196.86
1634.914,196.86
1635.134,196.84
1635.314,196.84
1635.354,196.83
1635.534,196.83
1635.754,196.81
1635.934,196.81
1635.994,196.8
1636.154,196.8
1636.374,196.78
1636.574,196.78
1636.634,196.77
1636.934,196.76
1636.994,196.75
1637.194,196.75
1637.414,196.73
1637.574,196.73
1637.634,196.72
1637.814,196.72
1638.034,196.7
1638.214,196.7
1638.254,196.69
1638.434,196.69
1638.674,196.67
1638.854,196.67
1638.874,196.66
1639.074,196.66
1639.294,196.64
1639.494,196.64
1639.514,196.63
1639.694,196.63
1639.914,196.61
1640.114,196.61
1640.154,196.6
1640.314,196.6
1640.554,196.58
1640.734,196.58
1640.794,196.57
1640.954,196.57
1641.174,196.55
1641.374,196.55
1641.434,196.54
1641.594,196.53
1641.794,196.53
1642.014,196.51
1642.214,196.51
1642.234,196.5
1642.414,196.5
1642.654,196.48
1642.854,196.48
1642.874,196.47
1643.054,196.47
1643.294,196.45
1643.474,196.45
1643.514,196.44
1643.694,196.44
1643.914,196.42
1644.114,196.42
1644.154,196.41
1644.314,196.41
1644.554,196.39
1644.754,196.39
1644.794,196.38
1644.954,196.38
1645.194,196.36
1645.374,196.36
1645.434,196.35
1645.594,196.35
1645.834,196.33
1646.014,196.33
1646.074,196.32
1646.234,196.32
1646.454,196.3
1646.654,196.3
1646.714,196.29
1646.874,196.29
1647.094,196.27
1647.294,196.27
1647.354,196.26
1647.514,196.26
1647.734,196.24
1647.934,196.24
1647.994,196.23
1648.154,196.23
1648.374,196.21
1648.574,196.21
1648.634,196.2
1648.794,196.2
1649.014,196.18
1649.214,196.18
1649.274,196.17
1649.434,196.17
1649.674,196.15
1649.854,196.15
1649.914,196.14
1650.074,196.14
1650.314,196.12
1650.494,196.12
1650.554,196.11
1650.714,196.11
1650.954,196.09
1651.154,196.09
1651.194,196.08
1651.354,196.08
1651.594,196.06
1651.794,196.06
1651.834,196.05
1652.014,196.05
1652.234,196.03
1652.434,196.03
1652.474,196.02
1652.654,196.02
1652.894,196
1653.094,196
1653.114,195.99
1653.294,195.99
1653.534,195.97
1653.734,195.97
1653.754,195.96
1653.954,195.96
1654.194,195.94
1654.374,195.94
1654.394,195.93
1654.594,195.93
1654.834,195.91
1655.014,195.91
1655.054,195.9
1655.254,195.9
1655.494,195.88
1655.654,195.88
1655.694,195.87
1655.894,195.87
1656.134,195.85
1656.294,195.85
1656.354,195.84
1656.554,195.84
1656.634,195.83
1656.794,195.82
1656.994,195.82
1657.234,195.8
1657.414,195.8
1657.434,195.79
1657.634,195.79
1657.874,195.77
1658.054,195.77
1658.094,195.76
1658.294,195.76
1658.534,195.74
1658.694,195.74
1658.754,195.73
1658.954,195.73
1659.034,195.72
1659.194,195.71
1659.394,195.71
1659.634,195.69
1659.814,195.69
1659.854,195.68
1660.054,195.68
1660.294,195.66
1660.454,195.66
1660.514,195.65
1660.714,195.65
1660.794,195.64
1660.954,195.63
1661.154,195.63
1661.394,195.61
1661.574,195.61
1661.614,195.6
1661.814,195.6
1662.054,195.58
1662.214,195.58
1662.274,195.57
1662.474,195.57
1662.554,195.56
1662.714,195.55
1662.914,195.55
1663.154,195.53
1663.334,195.53
1663.374,195.52
1663.574,195.52
1663.814,195.5
1663.974,195.5
1664.034,195.49
1664.234,195.49
1664.314,195.48
1664.474,195.47
1664.674,195.47
1664.914,195.45
1665.094,195.45
1665.134,195.44
1665.334,195.44
1665.574,195.43
1665.594,195.42
1665.794,195.42
1666.034,195.4
1666.214,195.4
1666.254,195.39
1666.454,195.39
1666.694,195.37
1666.854,195.37
1666.914,195.36
1667.114,195.36
1667.194,195.35
1667.354,195.35
1667.594,195.33
1667.794,195.33
1667.834,195.32
1668.014,195.32
1668.254,195.3
1668.454,195.3
1668.474,195.29
1668.694,195.29
1668.934,195.27
1669.094,195.27
1669.154,195.26
1669.354,195.26
1669.434,195.25
1669.594,195.24
1669.814,195.24
1670.054,195.22
1670.214,195.22
1670.274,195.21
1670.474,195.21
1670.554,195.2
1670.714,195.19
1670.934,195.19
1671.174,195.17
1671.334,195.17
1671.394,195.16
1671.594,195.16
1671.674,195.15
1671.834,195.15
1672.074,195.13
1672.274,195.13
1672.314,195.12
1672.494,195.12
1672.754,195.1
1672.934,195.1
1672.974,195.09
1673.174,195.09
1673.414,195.08
1673.434,195.07
1673.634,195.07
1673.874,195.05
1674.054,195.05
1674.114,195.04
1674.314,195.04
1674.394,195.03
1674.554,195.02
1674.774,195.02
1675.014,195
1675.174,195
1675.234,194.99
1675.454,194.99
1675.514,194.98
1675.674,194.98
1675.914,194.96
1676.134,194.96
1676.154,194.95
1676.354,194.95
1676.594,194.93
1676.774,194.93
1676.834,194.92
1677.034,194.92
1677.114,194.91
1677.274,194.91
1677.514,194.89
1677.714,194.89
1677.754,194.88
1677.954,194.88
1678.194,194.86
1678.374,194.86
1678.434,194.85
1678.634,194.85
1678.714,194.84
1678.874,194.84
1679.114,194.82
1679.314,194.82
1679.354,194.81
1679.554,194.81
1679.794,194.79
1679.974,194.79
1680.034,194.78
1680.234,194.78
1680.314,194.77
1680.474,194.77
1680.714,194.75
1680.934,194.75
1680.954,194.74
1681.154,194.74
1681.414,194.72
1681.574,194.72
1681.634,194.71
1681.854,194.71
1681.914,194.7
1682.074,194.7
1682.334,194.68
1682.534,194.68
1682.554,194.67
1682.774,194.67
1683.014,194.65
1683.174,194.65
1683.254,194.64
1683.474,194.64
1683.514,194.63
1683.694,194.63
1683.954,194.61
1684.134,194.61
1684.174,194.6
1684.394,194.6
1684.474,194.59
1684.634,194.58
1684.854,194.58
1685.094,194.57
1685.114,194.56
1685.314,194.56
1685.574,194.54
1685.734,194.54
1685.794,194.53
1686.014,194.53
1686.074,194.52
1686.254,194.52
1686.494,194.5
1686.694,194.5
1686.734,194.49
1686.954,194.49
1687.034,194.48
1687.194,194.47
1687.414,194.47
1687.654,194.46
1687.674,194.45
1687.874,194.45
1688.134,194.43
1688.294,194.43
1688.374,194.42
1688.574,194.42
1688.634,194.41
1688.814,194.41
1689.074,194.39
1689.254,194.39
1689.294,194.38
1689.514,194.38
1689.594,194.37
1689.754,194.37
1690.014,194.35
1690.214,194.35
1690.234,194.34
1690.454,194.34
1690.694,194.33
1690.714,194.32
1690.934,194.32
1691.174,194.3
1691.334,194.3
1691.414,194.29
1691.634,194.29
1691.674,194.28
1691.874,194.28
1692.114,194.26
1692.294,194.26
1692.354,194.25
1692.574,194.25
1692.634,194.24
1692.814,194.24
1693.074,194.22
1693.254,194.22
1693.294,194.21
1693.514,194.21
1693.594,194.2
1693.754,194.2
1694.014,194.18
1694.214,194.18
1694.254,194.17
1694.474,194.17
1694.554,194.16
1694.714,194.15
1694.934,194.15
1695.174,194.14
1695.194,194.13
1695.414,194.13
1695.654,194.12
1695.674,194.11
1695.894,194.11
1696.134,194.1
1696.154,194.09
1696.374,194.09
1696.614,194.07
1696.774,194.07
1696.854,194.06
1697.074,194.06
1697.114,194.05
1697.314,194.05
1697.574,194.03
1697.734,194.03
1697.814,194.02
1698.034,194.02
1698.074,194.01
1698.274,194.01
1698.534,193.99
1698.694,193.99
1698.774,193.98
1698.994,193.98
1699.034,193.97
1699.234,193.97
1699.494,193.95
1699.654,193.95
1699.734,193.94
1699.954,193.94
1699.994,193.93
1700.194,193.93
1700.454,193.91
1700.614,193.91
1700.694,193.9
1700.914,193.9
1700.954,193.89
1701.154,193.89
1701.414,193.87
1701.574,193.87
1701.654,193.86
1701.874,193.86
1701.914,193.85
1702.114,193.85
1702.374,193.83
1702.534,193.83
1702.614,193.82
1702.834,193.82
1702.874,193.81
1703.074,193.81
1703.334,193.79
1703.494,193.79
1703.574,193.78
1703.794,193.78
1703.834,193.77
1704.034,193.77
1704.294,193.76
1704.314,193.75
1704.534,193.75
1704.774,193.74
1704.794,193.73
1705.014,193.73
1705.254,193.72
1705.274,193.71
1705.494,193.71
1705.734,193.7
1705.754,193.69
1705.974,193.69
1706.074,193.68
1706.234,193.68
1706.494,193.66
1706.694,193.66
1706.734,193.65
1706.954,193.65
1707.034,193.64
1707.194,193.64
1707.454,193.62
1707.654,193.62
1707.714,193.61
1707.934,193.61
1707.994,193.6
1708.174,193.6
1708.434,193.58
1708.614,193.58
1708.674,193.57
1708.914,193.57
1708.954,193.56
1709.154,193.56
1709.414,193.54
1709.574,193.54
1709.654,193.53
1709.894,193.53
1709.914,193.52
1710.134,193.52
1710.374,193.51
1710.394,193.5
1710.614,193.5
1710.714,193.49
1710.874,193.49
1711.134,193.47
1711.334,193.47
1711.374,193.46
1711.614,193.46
1711.674,193.45
1711.854,193.45
1712.114,193.43
1712.294,193.43
1712.354,193.42
1712.594,193.42
1712.634,193.41
1712.834,193.41
1713.094,193.39
1713.254,193.39
1713.354,193.38
1713.574,193.38
1713.594,193.37
1713.834,193.37
1713.914,193.36
1714.074,193.36
1714.334,193.34
1714.534,193.34
1714.594,193.33
1714.814,193.33
1714.874,193.32
1715.054,193.32
1715.334,193.3
1715.494,193.3
1715.574,193.29
1715.814,193.29
1715.834,193.28
1716.054,193.28
1716.294,193.27
1716.314,193.26
1716.554,193.26
1716.634,193.25
1716.794,193.25
1717.074,193.23
1717.254,193.23
1717.314,193.22
1717.554,193.22
1717.594,193.21
1717.794,193.21
1718.054,193.2
1718.074,193.19
1718.294,193.19
1718.394,193.18
1718.554,193.18
1718.814,193.16
1719.014,193.16
1719.074,193.15
1719.294,193.15
1719.354,193.14
1719.554,193.14
1719.814,193.12
1719.974,193.12
1720.074,193.11
1720.294,193.11
1720.314,193.1
1720.554,193.1
1720.634,193.09
1720.794,193.09
1721.074,193.07
1721.254,193.07
1721.314,193.06
1721.554,193.06
1721.594,193.05
1721.794,193.05
1722.054,193.04
1722.074,193.03
1722.314,193.03
1722.394,193.02
1722.554,193.02
1722.834,193
1723.014,193
1723.074,192.99
1723.314,192.99
1723.354,192.98
1723.574,192.98
1723.814,192.97
1723.834,192.96
1724.074,192.96
1724.154,192.95
1724.334,192.95
1724.594,192.93
1724.774,192.93
1724.854,192.92
1725.074,192.92
1725.114,192.91
1725.334,192.91
1725.434,192.9
1725.594,192.9
1725.874,192.88
1726.054,192.88
1726.114,192.87
1726.354,192.87
1726.394,192.86
1726.614,192.86
1726.854,192.85
1726.874,192.84
1727.114,192.84
1727.194,192.83
1727.374,192.83
1727.634,192.81
1727.814,192.81
1727.894,192.8
1728.134,192.8
1728.154,192.79
1728.394,192.79
1728.474,192.78
1728.634,192.78
1728.914,192.76
1729.094,192.76
1729.174,192.75
1729.414,192.75
1729.434,192.74
1729.674,192.74
1729.754,192.73
1729.914,192.73
1730.194,192.71
1730.374,192.71
1730.454,192.7
1730.694,192.7
1730.714,192.69
1730.954,192.69
1731.034,192.68
1731.194,192.68
1731.474,192.66
1731.654,192.66
1731.734,192.65
1731.974,192.65
1731.994,192.64
1732.234,192.64
1732.314,192.63
1732.494,192.63
1732.774,192.61
1732.934,192.61
1733.014,192.6
1733.254,192.6
1733.274,192.59
1733.514,192.59
1733.594,192.58
1733.774,192.58
1734.054,192.56
1734.214,192.56
1734.314,192.55
1734.534,192.55
1734.574,192.54
1734.814,192.54
1734.874,192.53
1735.074,192.53
1735.334,192.52
1735.354,192.51
1735.594,192.51
1735.674,192.5
1735.854,192.5
1736.114,192.48
1736.294,192.48
1736.374,192.47
1736.614,192.47
1736.634,192.46
1736.874,192.46
1736.954,192.45
1737.134,192.45
1737.414,192.43
1737.574,192.43
1737.674,192.42
1737.894,192.42
1737.934,192.41
1738.174,192.41
1738.234,192.4
1738.434,192.4
1738.694,192.39
1738.734,192.38
1738.974,192.38
1739.034,192.37
1739.234,192.37
1739.494,192.36
1739.514,192.35
1739.754,192.35
1739.834,192.34
1740.014,192.34
1740.294,192.32
1740.454,192.32
1740.554,192.31
1740.774,192.31
1740.814,192.3
1741.054,192.3
1741.114,192.29
1741.314,192.29
1741.574,192.28
1741.594,192.27
1741.854,192.27
1741.914,192.26
1742.114,192.26
1742.374,192.25
1742.394,192.24
1742.634,192.24
1742.714,192.23
1742.894,192.23
1743.174,192.21
1743.334,192.21
1743.434,192.2
1743.654,192.2
1743.714,192.19
1743.954,192.19
1743.994,192.18
1744.214,192.18
1744.314,192.17
1744.474,192.17
1744.754,192.15
1744.934,192.15
1745.034,192.14
1745.254,192.14
1745.294,192.13
1745.534,192.13
1745.594,192.12
1745.794,192.12
1746.054,192.11
1746.074,192.1
1746.334,192.1
1746.394,192.09
1746.594,192.09
1746.854,192.08
1746.874,192.07
1747.114,192.07
1747.194,192.06
1747.394,192.06
1747.654,192.05
1747.674,192.04
1747.914,192.04
1747.994,192.03
1748.194,192.03
1748.454,192.02
1748.474,192.01
1748.714,192.01
1748.794,192
1748.994,192
1749.254,191.99
1749.274,191.98
1749.514,191.98
1749.594,191.97
1749.794,191.97
1750.054,191.96
1750.074,191.95
1750.314,191.95
1750.394,191.94
1750.594,191.94
1750.854,191.93
1750.874,191.92
1751.114,191.92
1751.194,191.91
1751.394,191.91
1751.654,191.9
1751.674,191.89
1751.934,191.89
1751.994,191.88
1752.194,191.88
1752.454,191.87
1752.474,191.86
1752.734,191.86
1752.794,191.85
1752.994,191.85
1753.254,191.84
1753.294,191.83
1753.534,191.83
1753.594,191.82
1753.814,191.82
1753.914,191.81
1754.094,191.8
1754.354,191.8
1754.394,191.79
1754.614,191.79
1754.714,191.78
1754.894,191.78
1755.174,191.76
1755.334,191.76
1755.454,191.75
1755.654,191.75
1755.714,191.74
1755.974,191.74
1755.994,191.73
1756.234,191.73
1756.314,191.72
1756.514,191.72
1756.774,191.71
1756.794,191.7
1757.054,191.7
1757.114,191.69
1757.314,191.69
1757.574,191.68
1757.614,191.67
1757.854,191.67
1757.914,191.66
1758.134,191.66
1758.234,191.65
1758.414,191.65
1758.694,191.63
1758.854,191.63
1758.974,191.62
1759.174,191.62
1759.234,191.61
1759.494,191.61
1759.514,191.6
1759.774,191.6
1759.834,191.59
1760.034,191.59
1760.294,191.58
1760.334,191.57
1760.594,191.57
1760.634,191.56
1760.854,191.56
1760.954,191.55
1761.154,191.54
1761.414,191.54
1761.434,191.53
1761.674,191.53
1761.754,191.52
1761.954,191.52
1762.214,191.51
1762.254,191.5
1762.494,191.5
1762.554,191.49
1762.774,191.49
1762.874,191.48
1763.074,191.47
1763.334,191.47
1763.354,191.46
1763.594,191.46
1763.674,191.45
1763.874,191.45
1764.134,191.44
1764.174,191.43
1764.434,191.43
1764.474,191.42
1764.694,191.42
1764.794,191.41
1764.994,191.4
1765.254,191.4
1765.274,191.39
1765.534,191.39
1765.594,191.38
1765.794,191.38
1766.054,191.37
1766.094,191.36
1766.354,191.36
1766.394,191.35
1766.634,191.35
1766.714,191.34
1766.914,191.34
1767.174,191.33
1767.214,191.32
1767.454,191.32
1767.514,191.31
1767.734,191.31
1767.834,191.3
1768.034,191.29
1768.294,191.29
1768.314,191.28
1768.574,191.28
1768.634,191.27
1768.854,191.27
1768.954,191.26
1769.154,191.25
1769.414,191.25
1769.434,191.24
1769.674,191.24
1769.754,191.23
1769.954,191.23
1770.214,191.22
1770.254,191.21
1770.514,191.21
1770.554,191.2
1770.794,191.2
1770.874,191.19
1771.074,191.19
1771.334,191.18
1771.374,191.17
1771.634,191.17
1771.674,191.16
1771.914,191.16
1771.994,191.15
1772.194,191.15
1772.454,191.14
1772.494,191.13
1772.754,191.13
1772.794,191.12
1773.034,191.12
1773.114,191.11
1773.314,191.11
1773.574,191.1
1773.614,191.09
1773.874,191.09
1773.914,191.08
1774.154,191.08
1774.234,191.07
1774.434,191.07
1774.694,191.06
1774.734,191.05
1774.994,191.05
1775.034,191.04
1775.274,191.04
1775.354,191.03
1775.554,191.03
1775.674,191.02
1775.874,191.01
1776.134,191.01
1776.154,191
1776.414,191
1776.474,190.99
1776.694,190.99
1776.794,190.98
1776.994,190.97
1777.254,190.97
1777.274,190.96
1777.534,190.96
1777.594,190.95
1777.814,190.95
1777.914,190.94
1778.114,190.94
1778.374,190.93
1778.414,190.92
1778.674,190.92
1778.714,190.91
1778.954,190.91
1779.034,190.9
1779.234,190.9
1779.494,190.89
1779.534,190.88
1779.814,190.88
1779.834,190.87
1780.094,190.87
1780.154,190.86
1780.374,190.86
1780.474,190.85
1780.674,190.84
1780.934,190.84
1780.974,190.83
1781.234,190.83
1781.274,190.82
1781.514,190.82
1781.594,190.81
1781.794,190.81
1781.914,190.8
1782.114,190.79
1782.374,190.79
1782.394,190.78
1782.654,190.78
1782.714,190.77
1782.934,190.77
1783.034,190.76
1783.234,190.76
1783.494,190.75
1783.534,190.74
1783.794,190.74
1783.834,190.73
1784.094,190.73
1784.154,190.72
1784.374,190.72
1784.474,190.71
1784.674,190.7
1784.934,190.7
1784.974,190.69
1785.234,190.69
1785.274,190.68
1785.534,190.68
1785.594,190.67
1785.814,190.67
1785.914,190.66
1786.114,190.65
1786.374,190.65
1786.414,190.64
1786.674,190.64
1786.714,190.63
1786.954,190.63
1787.034,190.62
1787.254,190.62
1787.354,190.61
1787.554,190.6
1787.814,190.6
1787.854,190.59
1788.114,190.59
1788.154,190.58
1788.414,190.58
1788.474,190.57
1788.694,190.57
1788.794,190.56
1788.994,190.56
1789.254,190.55
1789.294,190.54
1789.574,190.54
1789.594,190.53
1789.854,190.53
1789.914,190.52
1790.154,190.52
1790.234,190.51
1790.434,190.51
1790.554,190.5
1790.754,190.49
1791.014,190.49
1791.034,190.48
1791.314,190.48
1791.354,190.47
1791.594,190.47
1791.674,190.46
1791.894,190.46
1791.994,190.45
1792.194,190.44
1792.454,190.44
1792.494,190.43
1792.774,190.43
1792.794,190.42
1793.054,190.42
1793.114,190.41
1793.354,190.41
1793.434,190.4
1793.634,190.4
1793.754,190.39
1793.954,190.38
1794.214,190.38
1794.254,190.37
1794.514,190.37
1794.554,190.36
1794.814,190.36
1794.874,190.35
1795.114,190.35
1795.194,190.34
1795.394,190.34
1795.514,190.33
1795.714,190.32
1795.974,190.32
1796.014,190.31
1796.274,190.31
1796.314,190.3
1796.574,190.3
1796.634,190.29
1796.874,190.29
1796.954,190.28
1797.154,190.28
1797.274,190.27
1797.474,190.26
1797.734,190.26
1797.774,190.25
1798.054,190.25
1798.074,190.24
1798.334,190.24
1798.394,190.23
1798.634,190.23
1798.714,190.22
1798.934,190.22
1799.034,190.21
1799.234,190.21
1799.354,190.2
1799.554,190.19
1799.814,190.19
1799.834,190.18
1800.114,190.18
1800.154,190.17
1800.414,190.17
1800.474,190.16
1800.714,190.16
1800.794,190.15
1801.014,190.15
1801.114,190.14
1801.314,190.13
1801.574,190.13
1801.614,190.12
1801.894,190.12
1801.914,190.11
1802.194,190.11
1802.234,190.1
1802.494,190.1
1802.554,190.09
1802.794,190.09
1802.874,190.08
1803.094,190.08
1803.194,190.07
1803.394,190.07
1803.654,190.06
1803.694,190.05
1803.974,190.05
1803.994,190.04
1804.274,190.04
1804.314,190.03
1804.574,190.03
1804.634,190.02
1804.874,190.02
1804.954,190.01
1805.174,190.01
1805.274,190
1805.474,190
1805.594,189.99
1805.794,189.98
1806.054,189.98
1806.094,189.97
1806.374,189.97
1806.394,189.96
1806.674,189.96
1806.714,189.95
1806.974,189.95
1807.034,189.94
1807.274,189.94
1807.354,189.93
1807.574,189.93
1807.674,189.92
1807.874,189.92
1807.994,189.91
1808.194,189.9
1808.454,189.9
1808.494,189.89
1808.774,189.89
1808.794,189.88
1809.074,189.88
1809.114,189.87
1809.394,189.87
1809.434,189.86
1809.694,189.86
1809.754,189.85
1809.994,189.85
1810.074,189.84
1810.294,189.84
1810.394,189.83
1810.594,189.83
1810.714,189.82
1810.914,189.81
1811.174,189.81
1811.214,189.8
1811.494,189.8
1811.514,189.79
1811.814,189.79
1811.834,189.78
1812.114,189.78
1812.154,189.77
1812.414,189.77
1812.474,189.76
1812.714,189.76
1812.794,189.75
1813.014,189.75
1813.114,189.74
1813.314,189.74
1813.434,189.73
1813.634,189.73
1813.754,189.72
1813.954,189.71
1814.214,189.71
1814.254,189.7
1814.534,189.7
1814.554,189.69
1814.854,189.69
1814.874,189.68
1815.154,189.68
1815.194,189.67
1815.454,189.67
1815.514,189.66
1815.754,189.66
1815.834,189.65
1816.074,189.65
1816.154,189.64
1816.374,189.64
1816.474,189.63
1816.674,189.63
1816.794,189.62
1816.994,189.62
1817.114,189.61
1817.314,189.6
1817.574,189.6
1817.614,189.59
1817.894,189.59
1817.934,189.58
1818.214,189.58
1818.234,189.57
1818.514,189.57
1818.554,189.56
1818.834,189.56
1818.874,189.55
1819.134,189.55
1819.194,189.54
1819.454,189.54
1819.514,189.53
1819.754,189.53
1819.834,189.52
1820.054,189.52
1820.154,189.51
1820.374,189.51
1820.474,189.5
1820.674,189.5
1820.794,189.49
1820.994,189.49
1821.114,189.48
1821.314,189.47
1821.574,189.47
1821.634,189.46
1821.894,189.46
1821.934,189.45
1822.214,189.45
1822.254,189.44
1822.534,189.44
1822.554,189.43
1822.834,189.43
1822.874,189.42
1823.154,189.42
1823.194,189.41
1823.474,189.41
1823.514,189.4
1823.774,189.4
1823.834,189.39
1824.094,189.39
1824.154,189.38
1824.394,189.38
1824.474,189.37
1824.714,189.37
1824.794,189.36
1825.014,189.36
1825.114,189.35
1825.334,189.35
1825.434,189.34
1825.634,189.34
1825.754,189.33
1825.954,189.33
1826.074,189.32
1826.274,189.32
1826.394,189.31
1826.594,189.3
1826.854,189.3
1826.914,189.29
1827.174,189.29
1827.214,189.28
1827.494,189.28
1827.534,189.27
1827.814,189.27
1827.854,189.26
1828.134,189.26
1828.154,189.25
1828.454,189.25
1828.474,189.24
1828.774,189.24
1828.794,189.23
1829.074,189.23
1829.114,189.22
1829.394,189.22
1829.434,189.21
1829.714,189.21
1829.754,189.2
1830.034,189.2
1830.074,189.19
1830.334,189.19
1830.394,189.18
1830.654,189.18
1830.714,189.17
1830.974,189.17
1831.034,189.16
1831.294,189.16
1831.354,189.15
1831.594,189.15
1831.674,189.14
1831.914,189.14
1831.994,189.13
1832.234,189.13
1832.314,189.12
1832.554,189.12
1832.634,189.11
1832.854,189.11
1832.954,189.1
1833.174,189.1
1833.274,189.09
1833.494,189.09
1833.594,189.08
1833.814,189.08
1833.914,189.07
1834.134,189.07
1834.234,189.06
1834.454,189.06
1834.554,189.05
1834.774,189.05
1834.874,189.04
1835.074,189.04
1835.194,189.03
1835.394,189.03
1835.514,189.02
1835.714,189.02
1835.834,189.01
1836.034,189.01
1836.154,189
1836.354,189
1836.474,188.99
1836.674,188.99
1836.794,188.98
1836.994,188.98
1837.114,188.97
1837.314,188.97
1837.434,188.96
1837.634,188.96
1837.754,188.95
1837.954,188.95
1838.074,188.94
1838.274,188.94
1838.394,188.93
1838.594,188.93
1838.714,188.92
1838.914,188.92
1839.034,188.91
1839.234,188.91
1839.354,188.9
1839.554,188.9
1839.674,188.89
1839.874,188.89
1839.994,188.88
1840.194,188.88
1840.314,188.87
1840.514,188.87
1840.634,188.86
1840.834,188.86
1840.954,188.85
1841.154,188.85
1841.274,188.84
1841.474,188.84
1841.594,188.83
1841.794,188.83
1841.914,188.82
1842.114,188.82
1842.234,188.81
1842.434,188.81
1842.554,188.8
1842.754,188.8
1842.874,188.79
1843.094,188.79
1843.194,188.78
1843.414,188.78
1843.514,188.77
1843.734,188.77
1843.834,188.76
1844.054,188.76
1844.154,188.75
1844.374,188.75
1844.474,188.74
1844.694,188.74
1844.794,188.73
1845.034,188.73
1845.114,188.72
1845.354,188.72
1845.434,188.71
1845.674,188.71
1845.754,188.7
1845.994,188.7
1846.074,188.69
1846.314,188.69
1846.394,188.68
1846.654,188.68
1846.714,188.67
1846.974,188.67
1847.034,188.66
1847.294,188.66
1847.354,188.65
1847.614,188.65
1847.674,188.64
1847.954,188.64
1847.994,188.63
1848.274,188.63
1848.314,188.62
1848.594,188.62
1848.634,188.61
1848.934,188.61
1848.954,188.6
1849.254,188.6
1849.274,188.59
1849.574,188.59
1849.594,188.58
1849.894,188.58
1849.934,188.57
1850.214,188.57
1850.254,188.56
1850.534,188.56
1850.574,188.55
1850.854,188.55
1850.914,188.54
1851.174,188.54
1851.234,188.53
1851.494,188.53
1851.574,188.52
1851.814,188.52
1851.894,188.51
1852.134,188.51
1852.214,188.5
1852.454,188.5
1852.554,188.49
1852.774,188.49
1852.874,188.48
1853.094,188.48
1853.214,188.47
1853.414,188.47
1853.534,188.46
1853.734,188.46
1853.854,188.46
1853.914,188.45
1854.174,188.45
1854.234,188.44
1854.514,188.44
1854.554,188.43
1854.834,188.43
1854.874,188.42
1855.174,188.42
1855.194,188.41
1855.494,188.41
1855.514,188.4
1855.814,188.4
1855.854,188.39
1856.134,188.39
1856.174,188.38
1856.454,188.38
1856.514,188.37
1856.774,188.37
1856.834,188.36
1857.094,188.36
1857.174,188.35
1857.414,188.35
1857.514,188.34
1857.734,188.34
1857.834,188.33
1858.054,188.33
1858.174,188.32
1858.374,188.32
1858.494,188.31
1858.694,188.31
1858.814,188.31
1858.874,188.3
1859.154,188.3
1859.194,188.29
1859.474,188.29
1859.514,188.28
1859.814,188.28
1859.834,188.27
1860.134,188.27
1860.174,188.26
1860.454,188.26
1860.494,188.25
1860.774,188.25
1860.834,188.24
1861.094,188.24
1861.174,188.23
1861.414,188.23
1861.494,188.22
1861.734,188.22
1861.834,188.21
1862.054,188.21
1862.174,188.2
1862.374,188.2
1862.494,188.2
1862.554,188.19
1862.814,188.19
1862.874,188.18
1863.154,188.18
1863.194,188.17
1863.494,188.17
1863.514,188.16
1863.814,188.16
1863.854,188.15
1864.134,188.15
1864.194,188.14
1864.454,188.14
1864.514,188.13
1864.774,188.13
1864.854,188.12
1865.094,188.12
1865.194,188.11
1865.414,188.11
1865.534,188.1
1865.734,188.1
1865.854,188.1
1865.914,188.09
1866.194,188.09
1866.234,188.08
1866.514,188.08
1866.554,188.07
1866.854,188.07
1866.874,188.06
1867.174,188.06
1867.214,188.05
1867.494,188.05
1867.554,188.04
1867.814,188.04
1867.894,188.03
1868.134,188.03
1868.234,188.02
1868.454,188.02
1868.574,188.01
1868.774,188.01
1868.894,188.01
1868.954,188
1869.234,188
1869.274,187.99
1869.574,187.99
1869.594,187.98
1869.894,187.98
1869.934,187.97
1870.214,187.97
1870.274,187.96
1870.534,187.96
1870.614,187.95
1870.854,187.95
1870.954,187.94
1871.174,187.94
1871.294,187.93
1871.494,187.93
1871.614,187.93
1871.674,187.92
1871.954,187.92
1871.994,187.91
1872.294,187.91
1872.314,187.9
1872.614,187.9
1872.654,187.89
1872.934,187.89
1872.994,187.88
1873.254,187.88
1873.334,187.87
1873.574,187.87
1873.674,187.86
1873.894,187.86
1874.014,187.86
1874.074,187.85
1874.354,187.85
1874.394,187.84
1874.694,187.84
1874.714,187.83
1875.014,187.83
1875.054,187.82
1875.334,187.82
1875.394,187.81
1875.654,187.81
1875.734,187.8
1875.974,187.8
1876.094,187.79
1876.294,187.79
1876.414,187.79
1876.474,187.78
1876.754,187.78
1876.794,187.77
1877.094,187.77
1877.114,187.76
1877.414,187.76
1877.454,187.75
1877.734,187.75
1877.814,187.74
1878.054,187.74
1878.154,187.73
1878.374,187.73
1878.494,187.72
1878.694,187.72
1878.834,187.72
1878.874,187.71
1879.174,187.71
1879.194,187.7
1879.494,187.7
1879.534,187.69
1879.814,187.69
1879.874,187.68
1880.134,187.68
1880.234,187.67
1880.454,187.67
1880.574,187.66
1880.774,187.66
1880.894,187.66
1880.954,187.65
1881.254,187.65
1881.274,187.64
1881.574,187.64
1881.614,187.63
1881.894,187.63
1881.974,187.62
1882.214,187.62
1882.314,187.61
1882.534,187.61
1882.654,187.6
1882.854,187.6
1882.994,187.6
1883.034,187.59
1883.334,187.59
1883.354,187.58
1883.654,187.58
1883.714,187.57
1883.974,187.57
1884.054,187.56
1884.294,187.56
1884.414,187.55
1884.614,187.55
1884.734,187.55
1884.794,187.54
1885.094,187.54
1885.114,187.53
1885.414,187.53
1885.454,187.52
1885.734,187.52
1885.814,187.51
1886.054,187.51
1886.154,187.5
1886.374,187.5
1886.494,187.5
1886.554,187.49
1886.834,187.49
1886.874,187.48
1887.174,187.48
1887.214,187.47
1887.494,187.47
1887.554,187.46
1887.814,187.46
1887.914,187.45
1888.134,187.45
1888.254,187.44
1888.454,187.44
1888.594,187.44
1888.634,187.43
1888.934,187.43
1888.974,187.42
1889.254,187.42
1889.314,187.41
1889.574,187.41
1889.674,187.4
1889.894,187.4
1890.014,187.4
1890.074,187.39
1890.354,187.39
1890.394,187.38
1890.694,187.38
1890.734,187.37
1891.014,187.37
1891.094,187.36
1891.334,187.36
1891.434,187.35
1891.654,187.35
1891.774,187.35
1891.834,187.34
1892.134,187.34
1892.154,187.33
1892.454,187.33
1892.514,187.32
1892.774,187.32
1892.854,187.31
1893.094,187.31
1893.214,187.3
1893.414,187.3
1893.554,187.3
1893.594,187.29
1893.894,187.29
1893.934,187.28
1894.214,187.28
1894.274,187.27
1894.534,187.27
1894.634,187.26
1894.854,187.26
1894.974,187.26
1895.034,187.25
1895.334,187.25
1895.354,187.24
1895.654,187.24
1895.714,187.23
1895.974,187.23
1896.074,187.22
1896.294,187.22
1896.414,187.21
1896.614,187.21
1896.754,187.21
1896.794,187.2
1897.094,187.2
1897.134,187.19
1897.414,187.19
1897.494,187.18
1897.734,187.18
1897.854,187.17
1898.054,187.17
1898.194,187.17
1898.234,187.16
1898.534,187.16
1898.574,187.15
1898.854,187.15
1898.934,187.14
1899.174,187.14
1899.294,187.13
1899.494,187.13
1899.634,187.13
1899.674,187.12
1899.974,187.12
1900.014,187.11
1900.294,187.11
1900.374,187.1
1900.614,187.1
1900.734,187.09
1900.934,187.09
1901.074,187.09
1901.114,187.08
1901.414,187.08
1901.454,187.07
1901.734,187.07
1901.814,187.06
1902.054,187.06
1902.174,187.05
1902.374,187.05
1902.514,187.05
1902.554,187.04
1902.854,187.04
1902.894,187.03
1903.174,187.03
1903.254,187.02
1903.494,187.02
1903.614,187.01
1903.814,187.01
1903.954,187.01
1903.994,187
1904.294,187
1904.354,186.99
1904.614,186.99
1904.714,186.98
1904.934,186.98
1905.054,186.98
1905.114,186.97
1905.414,186.97
1905.434,186.96
1905.734,186.96
1905.794,186.95
1906.054,186.95
1906.154,186.94
1906.374,186.94
1906.514,186.94
1906.554,186.93
1906.854,186.93
1906.894,186.92
1907.174,186.92
1907.254,186.91
1907.494,186.91
1907.614,186.9
1907.674,186.9
1907.974,186.9
1907.994,186.89
1908.294,186.89
1908.354,186.88
1908.614,186.88
1908.714,186.87
1908.934,186.87
1909.054,186.87
1909.114,186.86
1909.414,186.86
1909.454,186.85
1909.734,186.85
1909.814,186.84
1910.054,186.84
1910.174,186.83
1910.234,186.83
1910.534,186.83
1910.554,186.82
1910.854,186.82
1910.914,186.81
1911.174,186.81
1911.274,186.8
1911.494,186.8
1911.634,186.8
1911.674,186.79
1911.974,186.79
1912.014,186.78
1912.294,186.78
1912.394,186.77
1912.614,186.77
1912.734,186.77
1912.794,186.76
1913.094,186.76
1913.134,186.75
1913.414,186.75
1913.494,186.74
1913.734,186.74
1913.854,186.73
1913.914,186.73
1914.214,186.73
1914.234,186.72
1914.534,186.72
1914.594,186.71
1914.854,186.71
1914.974,186.7
1915.174,186.7
1915.314,186.7
1915.354,186.69
1915.654,186.69
1915.714,186.68
1915.974,186.68
1916.074,186.67
1916.294,186.67
1916.434,186.67
1916.474,186.66
1916.774,186.66
1916.834,186.65
1917.094,186.65
1917.194,186.64
1917.414,186.64
1917.554,186.64
1917.594,186.63
1917.894,186.63
1917.934,186.62
1918.214,186.62
1918.314,186.61
1918.534,186.61
1918.674,186.61
1918.714,186.6
1919.014,186.6
1919.054,186.59
1919.334,186.59
1919.434,186.58
1919.654,186.58
1919.794,186.58
1919.834,186.57
1920.134,186.57
1920.174,186.56
1920.454,186.56
1920.554,186.55
1920.774,186.55
1920.914,186.55
1920.954,186.54
1921.254,186.54
1921.294,186.53
1921.574,186.53
1921.674,186.52
1921.894,186.52
1922.034,186.52
1922.074,186.51
1922.374,186.51
1922.434,186.5
1922.694,186.5
1922.794,186.49
1923.014,186.49
1923.154,186.49
1923.194,186.48
1923.494,186.48
1923.554,186.47
1923.814,186.47
1923.934,186.46
1923.994,186.46
1924.294,186.46
1924.314,186.45
1924.614,186.45
1924.674,186.44
1924.934,186.44
1925.054,186.43
1925.114,186.43
1925.414,186.43
1925.434,186.42
1925.734,186.42
1925.814,186.41
1926.054,186.41
1926.174,186.41
1926.234,186.4
1926.534,186.4
1926.574,186.39
1926.854,186.39
1926.954,186.38
1927.174,186.38
1927.314,186.38
1927.354,186.37
1927.654,186.37
1927.714,186.36
1927.974,186.36
1928.074,186.35
1928.294,186.35
1928.434,186.35
1928.474,186.34
1928.774,186.34
1928.834,186.33
1929.094,186.33
1929.214,186.32
1929.274,186.32
1929.574,186.32
1929.594,186.31
1929.894,186.31
1929.974,186.3
1930.214,186.3
1930.334,186.3
1930.394,186.29
1930.694,186.29
1930.754,186.28
1931.014,186.28
1931.134,186.27
1931.194,186.27
1931.494,186.27
1931.514,186.26
1931.814,186.26
1931.894,186.25
1932.134,186.25
1932.254,186.25
1932.314,186.24
1932.614,186.24
1932.654,186.23
1932.934,186.23
1933.034,186.22
1933.254,186.22
1933.394,186.22
1933.434,186.21
1933.734,186.21
1933.794,186.2
1934.054,186.2
1934.174,186.2
1934.234,186.19
1934.534,186.19
1934.574,186.18
1934.854,186.18
1934.954,186.17
1935.174,186.17
1935.314,186.17
1935.354,186.16
1935.654,186.16
1935.714,186.15
1935.974,186.15
1936.094,186.15
1936.154,186.14
1936.454,186.14
1936.494,186.13
1936.774,186.13
1936.874,186.12
1937.094,186.12
1937.234,186.12
1937.274,186.11
1937.574,186.11
1937.654,186.1
1937.894,186.1
1938.014,186.1
1938.074,186.09
1938.374,186.09
1938.414,186.08
1938.694,186.08
1938.814,186.07
1938.874,186.07
1939.174,186.07
1939.194,186.06
1939.494,186.06
1939.574,186.05
1939.814,186.05
1939.954,186.05
1939.994,186.04
1940.294,186.04
1940.354,186.03
1940.614,186.03
1940.734,186.02
1940.794,186.02
1941.094,186.02
1941.134,186.01
1941.414,186.01
1941.514,186
1941.594,186
1941.894,186
1941.914,185.99
1942.214,185.99
1942.294,185.98
1942.534,185.98
1942.674,185.98
1942.714,185.97
1943.014,185.97
1943.074,185.96
1943.334,185.96
1943.454,185.96
1943.514,185.95
1943.814,185.95
1943.854,185.94
1944.134,185.94
1944.254,185.93
1944.314,185.93
1944.614,185.93
1944.634,185.92
1944.934,185.92
1945.034,185.91
1945.254,185.91
1945.394,185.91
1945.434,185.9
1945.734,185.9
1945.814,185.89
1946.054,185.89
1946.174,185.89
1946.234,185.88
1946.534,185.88
1946.594,185.87
1946.854,185.87
1946.974,185.87
1947.034,185.86
1947.334,185.86
1947.374,185.85
1947.654,185.85
1947.774,185.84
1947.834,185.84
1948.134,185.84
1948.174,185.83
1948.454,185.83
1948.554,185.82
1948.634,185.82
1948.934,185.82
1948.954,185.81
1949.254,185.81
1949.354,185.8
1949.574,185.8
1949.714,185.8
1949.754,185.79
1950.054,185.79
1950.134,185.78
1950.374,185.78
1950.514,185.78
1950.554,185.77
1950.854,185.77
1950.934,185.76
1951.174,185.76
1951.294,185.76
1951.354,185.75
1951.654,185.75
1951.714,185.74
1951.974,185.74
1952.094,185.74
1952.154,185.73
1952.454,185.73
1952.514,185.72
1952.774,185.72
1952.894,185.72
1952.954,185.71
1953.254,185.71
1953.294,185.7
1953.574,185.7
1953.694,185.69
1953.754,185.69
1954.054,185.69
1954.094,185.68
1954.374,185.68
1954.494,185.67
1954.554,185.67
1954.854,185.67
1954.894,185.66
1955.174,185.66
1955.294,185.65
1955.354,185.65
1955.654,185.65
1955.694,185.64
1955.974,185.64
1956.094,185.63
1956.154,185.63
1956.454,185.63
1956.494,185.62
1956.774,185.62
1956.894,185.61
1956.954,185.61
1957.254,185.61
1957.294,185.6
1957.574,185.6
1957.694,185.59
1957.754,185.59
1958.054,185.59
1958.094,185.58
1958.374,185.58
1958.494,185.57
1958.554,185.57
1958.854,185.57
1958.894,185.56
1959.174,185.56
1959.294,185.55
1959.354,185.55
1959.654,185.55
1959.694,185.54
1959.974,185.54
1960.094,185.53
1960.154,185.53
1960.454,185.53
1960.494,185.52
1960.774,185.52
1960.894,185.51
1960.954,185.51
1961.254,185.51
1961.294,185.5
1961.574,185.5
1961.694,185.5
1961.754,185.49
1962.054,185.49
1962.114,185.48
1962.374,185.48
1962.494,185.48
1962.554,185.47
1962.854,185.47
1962.914,185.46
1963.174,185.46
1963.294,185.46
1963.354,185.45
1963.654,185.45
1963.734,185.44
1963.974,185.44
1964.114,185.44
1964.154,185.43
1964.454,185.43
1964.534,185.42
1964.774,185.42
1964.914,185.42
1964.954,185.41
1965.254,185.41
1965.354,185.4
1965.434,185.4
1965.734,185.4
1965.754,185.39
1966.054,185.39
1966.154,185.38
1966.234,185.38
1966.534,185.38
1966.554,185.37
1966.854,185.37
1966.974,185.36
1967.034,185.36
1967.334,185.36
1967.374,185.35
1967.654,185.35
1967.774,185.35
1967.834,185.34
1968.134,185.34
1968.194,185.33
1968.454,185.33
1968.574,185.33
1968.634,185.32
1968.934,185.32
1969.014,185.31
1969.254,185.31
1969.394,185.31
1969.434,185.3
1969.734,185.3
1969.834,185.29
1969.914,185.29
1970.214,185.29
1970.234,185.28
1970.534,185.28
1970.654,185.27
1970.714,185.27
1971.014,185.27
1971.054,185.26
1971.334,185.26
1971.454,185.26
1971.514,185.25
1971.814,185.25
1971.874,185.24
1972.134,185.24
1972.274,185.24
1972.314,185.23
1972.614,185.23
1972.694,185.22
1972.794,185.22
1973.094,185.22
1973.114,185.21
1973.414,185.21
1973.514,185.2
1973.594,185.2
1973.894,185.2
1973.934,185.19
1974.214,185.19
1974.334,185.18
1974.394,185.18
1974.694,185.18
1974.754,185.17
1975.014,185.17
1975.154,185.17
1975.194,185.16
1975.494,185.16
1975.574,185.15
1975.674,185.15
1975.974,185.15
1975.994,185.14
1976.294,185.14
1976.414,185.13
1976.474,185.13
1976.774,185.13
1976.814,185.12
1977.094,185.12
1977.214,185.12
1977.274,185.11
1977.574,185.11
1977.654,185.1
1977.754,185.1
1978.054,185.1
1978.074,185.09
1978.374,185.09
1978.474,185.08
1978.554,185.08
1978.854,185.08
1978.894,185.07
1979.174,185.07
1979.294,185.07
1979.354,185.06
1979.654,185.06
1979.734,185.05
1979.834,185.05
1980.134,185.05
1980.154,185.04
1980.454,185.04
1980.554,185.03
1980.634,185.03
1980.934,185.03
1980.974,185.02
1981.254,185.02
1981.374,185.02
1981.434,185.01
1981.734,185.01
1981.814,185
1981.914,185
1982.214,185
1982.234,184.99
1982.534,184.99
1982.654,184.98
1982.714,184.98
1983.014,184.98
1983.074,184.97
1983.334,184.97
1983.474,184.97
1983.514,184.96
1983.814,184.96
1983.914,184.95
1983.994,184.95
1984.294,184.95
1984.334,184.94
1984.614,184.94
1984.734,184.94
1984.794,184.93
1985.094,184.93
1985.174,184.92
1985.274,184.92
1985.574,184.92
1985.594,184.91
1985.894,184.91
1986.014,184.9
1986.074,184.9
1986.374,184.9
1986.434,184.89
1986.694,184.89
1986.834,184.89
1986.874,184.88
1987.174,184.88
1987.274,184.87
1987.354,184.87
1987.654,184.87
1987.694,184.86
1987.974,184.86
1988.094,184.86
1988.154,184.85
1988.454,184.85
1988.534,184.84
1988.634,184.84
1988.934,184.84
1988.974,184.83
1989.254,184.83
1989.374,184.83
1989.434,184.82
1989.734,184.82
1989.814,184.81
1989.914,184.81
1990.214,184.81
1990.234,184.8
1990.534,184.8
1990.654,184.79
1990.714,184.79
1991.014,184.79
1991.094,184.78
1991.194,184.78
1991.494,184.78
1991.514,184.77
1991.814,184.77
1991.934,184.76
1991.994,184.76
1992.294,184.76
1992.354,184.75
1992.474,184.75
1992.774,184.75
1992.794,184.74
1993.094,184.74
1993.214,184.73
1993.274,184.73
1993.574,184.73
1993.634,184.72
1993.754,184.72
1994.054,184.72
1994.074,184.71
1994.374,184.71
1994.494,184.7
1994.554,184.7
1994.854,184.7
1994.914,184.69
1995.034,184.69
1995.334,184.69
1995.354,184.68
1995.654,184.68
1995.774,184.67
1995.834,184.67
1996.134,184.67
1996.214,184.66
1996.314,184.66
1996.614,184.66
1996.634,184.65
1996.934,184.65
1997.054,184.64
1997.114,184.64
1997.414,184.64
1997.494,184.63
1997.594,184.63
1997.894,184.63
1997.914,184.62
1998.214,184.62
1998.334,184.62
1998.394,184.61
1998.694,184.61
1998.774,184.6
1998.874,184.6
1999.174,184.6
1999.214,184.59
1999.494,184.59
1999.614,184.59
1999.674,184.58
1999.834,184.58
1999.994,184.58
