wavelength,alpha(m=0)
400,-553.22
401,-564.93
402,-577.04
403,-589.57
404,-602.54
405,-615.98
406,-629.91
407,-644.36
408,-659.35
409,-674.92
410,-691.11
411,-707.95
412,-725.48
413,-743.74
414,-762.79
415,-782.66
416,-803.43
417,-825.14
418,-847.86
419,-871.68
420,-896.66
421,-922.89
422,-950.48
423,-979.53
424,-1010.15
425,-1042.49
426,-1076.68
427,-1112.9
428,-1151.32
429,-1192.15
430,-1235.63
431,-1282.03
432,-1331.64
474,3410.1
689,171.59
400.5,-559.03
401.5,-570.93
402.5,-583.25
403.5,-596
404.5,-609.2
405.5,-622.88
406.5,-637.07
407.5,-651.78
408.5,-667.06
409.5,-682.94
410.5,-699.45
411.5,-716.63
412.5,-734.52
413.5,-753.16
414.5,-772.62
415.5,-792.93
416.5,-814.16
417.5,-836.37
418.5,-859.63
419.5,-884.02
420.5,-909.61
421.5,-936.51
422.5,-964.82
423.5,-994.64
424.5,-1026.1
425.5,-1059.34
426.5,-1094.53
427.5,-1131.82
428.5,-1171.42
429.5,-1213.54
430.5,-1258.45
431.5,-1306.41
432.08,-1335.76
432.16,-1339.9
432.24,-1344.07
432.32,-1348.26
432.4,-1352.47
432.48,-1356.7
432.56,-1360.96
432.64,-1365.24
432.67,-1366.86
432.68,-1367.39
432.69,-1367.93
432.7,-1368.47
432.71,-1369.01
432.72,-1369.55
432.73,-1370.09
432.74,-1370.63
432.75,-1371.17
432.76,-1371.71
432.77,-1372.26
432.78,-1372.8
432.79,-1373.34
432.8,-1373.88
432.81,-1374.43
432.82,-1374.97
432.83,-1375.51
432.84,-1376.06
432.85,-1376.6
432.86,-1377.15
432.87,-1377.69
432.95,-1382.07
433.03,-1386.48
433.11,-1390.91
433.19,-1395.36
433.27,-1399.84
433.35,-1404.35
433.43,-1408.88
433.51,-1413.44
434.01,-1442.56
434.51,-1472.78
435.01,-1504.17
435.51,-1536.79
436.01,-1570.74
436.51,-1606.07
437.01,-1642.89
437.51,-1681.29
438.01,-1721.36
438.51,-1763.24
439.01,-1807.02
439.51,-1852.86
440.01,-1900.9
440.51,-1951.3
441.01,-2004.24
441.51,-2059.92
442.01,-2118.55
442.51,-2180.37
443.01,-2245.67
443.51,-2314.72
444.01,-2387.87
444.51,-2465.5
445.01,-2548.03
445.51,-2635.93
446.01,-2729.75
446.8,-2891.59
447.3,-3003.76
447.8,-3124.53
448.3,-3254.91
448.8,-3396.1
449.3,-3549.5
449.8,-3716.77
450.3,-3899.88
450.8,-4101.19
451.3,-4323.55
451.8,-4570.45
452.3,-4846.19
460.86,
460.885,
470.1,4785.2
470.6,4547.35
471.1,4332.73
471.6,4138.09
472.1,3960.78
472.6,3798.58
473.1,3649.64
473.6,3512.38
473.68,3491.42
473.76,3470.71
473.84,3450.26
473.92,3430.06
473.96,3420.05
474.04,3400.22
474.08,3390.39
474.12,3380.62
474.16,3370.92
474.2,3361.27
474.24,3351.67
474.28,3342.14
474.32,3332.66
474.33,3330.3
474.37,3320.89
474.41,3311.54
474.45,3302.24
474.49,3293
474.53,3283.81
474.57,3274.67
474.61,3265.59
474.65,3256.56
474.69,3247.58
474.73,3238.66
474.81,3220.96
474.89,3203.47
474.97,3186.17
475.05,3169.07
475.55,3066.4
476.05,2970.5
476.55,2880.71
477.05,2796.47
477.55,2717.27
478.05,2642.69
478.55,2572.33
479.05,2505.83
479.55,2442.89
480.05,2383.24
480.55,2326.61
481.05,2272.79
481.55,2221.58
482.05,2172.78
482.55,2126.23
482.64,2118.08
482.73,2110
482.82,2101.98
482.91,2094.02
482.94,2091.39
482.99,2087.01
483.04,2082.65
483.09,2078.31
483.14,2073.99
483.19,2069.69
483.24,2065.41
483.29,2061.15
483.39,2052.68
483.44,2048.48
483.49,2044.29
483.54,2040.13
483.59,2035.98
483.64,2031.84
483.69,2027.73
483.74,2023.64
483.79,2019.56
483.84,2015.5
483.89,2011.46
483.98,2004.22
484.07,1997.05
484.16,1989.93
484.25,1982.86
484.75,1944.58
485.25,1907.87
485.75,1872.63
486.25,1838.79
486.75,1806.25
487.25,1774.94
487.75,1744.8
488.25,1715.76
488.75,1687.77
489.25,1660.76
489.75,1634.68
490.25,1609.5
490.75,1585.15
491.25,1561.61
491.75,1538.83
492.25,1516.78
492.75,1495.42
493.25,1474.72
493.75,1454.65
494.25,1435.18
494.75,1416.29
495.25,1397.94
495.75,1380.13
496.25,1362.81
496.75,1345.98
497.25,1329.61
497.75,1313.69
498.25,1298.19
498.75,1283.11
499.25,1268.41
499.75,1254.1
500.25,1240.15
500.75,1226.54
501.25,1213.28
501.75,1200.34
502.25,1187.71
502.75,1175.39
503.25,1163.36
503.75,1151.6
504.25,1140.12
504.75,1128.9
505.25,1117.94
505.75,1107.22
506.25,1096.73
506.75,1086.48
507.25,1076.44
507.75,1066.62
508.25,1057.01
508.75,1047.6
509.25,1038.38
509.75,1029.35
510.25,1020.51
510.75,1011.84
511.25,1003.35
511.75,995.02
512.25,986.86
512.75,978.85
513.25,971
513.75,963.29
514.25,955.73
514.75,948.31
515.25,941.03
515.75,933.88
516.25,926.86
516.75,919.96
517.25,913.19
517.75,906.54
518.25,900
518.75,893.58
519.25,887.26
519.75,881.06
520.25,874.96
520.75,868.96
521.25,863.06
521.75,857.26
522.25,851.55
522.75,845.94
523.25,840.41
523.75,834.97
524.25,829.62
524.75,824.36
525.25,819.17
525.75,814.07
526.25,809.04
526.75,804.09
527.25,799.22
527.75,794.42
528.25,789.69
528.75,785.03
529.25,780.44
529.75,775.91
530.25,771.45
530.75,767.06
531.25,762.72
531.75,758.45
532.25,754.24
532.75,750.09
533.25,745.99
533.75,741.96
534.25,737.97
534.75,734.04
535.25,730.17
535.75,726.34
536.25,722.57
536.75,718.85
537.25,715.17
537.75,711.55
538.25,707.97
538.75,704.43
539.25,700.95
539.75,697.5
540.25,694.1
540.75,690.75
541.25,687.43
541.75,684.16
542.25,680.92
542.75,677.73
543.25,674.57
543.75,671.46
544.25,668.38
544.75,665.34
545.25,662.33
545.75,659.36
546.25,656.42
546.75,653.52
547.25,650.65
547.75,647.82
548.25,645.02
548.75,642.25
549.25,639.51
549.75,636.8
550.25,634.13
550.75,631.48
551.25,628.86
551.75,626.27
552.25,623.71
552.75,621.18
553.25,618.68
553.75,616.2
554.25,613.75
554.75,611.32
555.25,608.93
555.75,606.55
556.25,604.21
556.75,601.88
557.25,599.58
557.75,597.31
558.25,595.05
558.75,592.83
559.25,590.62
559.75,588.44
560.25,586.28
560.75,584.14
561.25,582.02
561.75,579.92
562.25,577.84
562.75,575.79
563.25,573.75
563.75,571.74
564.25,569.74
564.75,567.76
565.25,565.81
565.75,563.87
566.25,561.95
566.75,560.04
567.25,558.16
567.75,556.29
568.25,554.45
568.75,552.61
569.25,550.8
569.75,549
570.25,547.22
570.75,545.45
571.25,543.71
571.75,541.97
572.25,540.25
572.75,538.55
573.25,536.87
573.75,535.19
574.25,533.54
574.75,531.9
575.25,530.27
575.75,528.65
576.25,527.05
576.75,525.47
577.25,523.9
577.75,522.34
578.25,520.79
578.75,519.26
579.25,517.74
579.75,516.24
580.25,514.74
580.75,513.26
581.25,511.79
581.75,510.34
582.25,508.89
582.75,507.46
583.25,506.04
583.75,504.63
584.25,503.24
584.75,501.85
585.25,500.48
585.75,499.11
586.25,497.76
586.75,496.42
587.25,495.09
587.75,493.77
588.25,492.46
588.75,491.16
589.25,489.87
589.75,488.59
590.25,487.32
590.75,486.06
591.25,484.81
591.75,483.57
592.25,482.33
592.75,481.11
593.25,479.9
593.75,478.7
594.25,477.5
594.75,476.32
595.25,475.14
595.75,473.97
596.25,472.81
596.75,471.66
597.25,470.52
597.75,469.39
598.25,468.26
598.75,467.15
599.25,466.04
599.75,464.94
600.25,463.84
600.75,462.76
601.25,461.68
601.75,460.61
602.25,459.55
602.75,458.49
603.25,457.45
603.75,456.41
604.25,455.37
604.75,454.35
605.25,453.33
605.75,452.32
606.25,451.31
606.75,450.32
607.25,449.32
607.75,448.34
608.25,447.36
608.75,446.39
609.25,445.43
609.75,444.47
610.25,443.52
610.75,442.57
611.25,441.64
611.75,440.7
612.25,439.78
612.75,438.86
613.25,437.94
613.75,437.03
614.25,436.13
614.75,435.23
615.25,434.34
615.75,433.46
616.25,432.58
616.75,431.7
617.25,430.83
617.75,429.97
618.25,429.11
618.75,428.26
619.25,427.41
619.75,426.57
620.25,425.74
620.75,424.91
621.25,424.08
621.75,423.26
622.25,422.44
622.75,421.63
623.25,420.82
623.75,420.02
624.25,419.23
624.75,418.43
625.25,417.65
625.75,416.86
626.25,416.09
626.75,415.31
627.25,414.54
627.75,413.78
628.25,413.02
628.75,412.26
629.25,411.51
629.75,410.77
630.25,410.02
630.75,409.28
631.25,408.55
631.75,407.82
632.25,407.09
632.75,406.37
633.25,405.65
633.75,404.94
634.25,404.23
634.75,403.52
635.25,402.82
635.75,402.12
636.25,401.42
636.75,400.73
637.25,400.05
637.75,399.36
638.25,398.68
638.75,398
639.25,397.33
639.75,396.66
640.25,395.99
640.75,395.33
641.25,394.67
641.75,394.01
642.25,393.36
642.75,392.71
643.25,392.06
643.75,391.42
644.25,390.78
644.75,390.14
645.25,389.5
645.75,388.87
646.25,388.24
646.75,387.61
647.25,386.99
647.75,386.37
648.25,385.75
648.75,385.14
649.25,384.52
649.75,383.91
650.25,383.31
650.75,382.7
651.25,382.1
651.75,381.5
652.25,380.9
652.75,380.3
653.25,379.71
653.75,379.12
654.25,378.53
654.75,377.94
655.25,377.36
655.75,376.77
656.25,376.19
656.75,375.61
657.25,375.03
657.75,374.46
658.25,373.88
658.75,373.31
659.25,372.74
659.75,372.17
660.25,371.6
660.75,371.03
661.25,370.46
661.75,369.89
662.25,369.33
662.75,368.76
663.25,368.2
663.75,367.63
664.25,367.07
664.75,366.51
665.25,365.94
665.75,365.38
666.25,364.81
666.75,364.25
667.25,363.68
667.75,363.11
668.25,362.54
668.75,361.97
669.25,361.4
669.75,360.82
670.25,360.24
670.75,359.66
671.25,359.08
671.75,358.49
672.25,357.89
672.75,357.29
673.25,356.68
673.75,356.07
674.25,355.45
674.75,354.82
675.25,354.18
675.75,353.52
676.25,352.86
676.75,352.18
677.25,351.48
677.75,350.76
678.25,350.03
678.75,351.08
678.81,349.41
678.87,349.16
678.93,349.02
678.99,348.9
679.02,348.85
679.05,348.8
679.08,348.74
679.11,348.69
679.14,348.64
679.17,348.59
679.2,348.54
679.23,348.49
679.26,348.44
679.32,348.34
679.35,348.3
679.38,348.25
679.41,348.2
679.44,348.15
679.47,348.1
679.5,348.04
679.53,347.99
679.56,347.94
679.59,347.89
679.62,347.84
679.68,347.74
679.74,347.64
679.8,347.54
679.86,347.43
680.36,346.55
680.86,345.61
681.36,344.61
681.86,343.54
682.36,342.39
682.86,341.12
683.36,339.71
683.86,338.13
684.4,336.17
684.9,334.03
685.4,331.46
685.9,328.3
686.4,324.23
686.9,318.72
687.4,310.73
687.9,297.84
688.4,273.05
688.9,203.83
688.95,189.32
689.05,149.43
689.1,120.94
689.15,82.93
689.2,29.68
689.25,-50.3
689.3,-183.89
689.35,-452.25
689.4,-1267.1
689.415,-1977.52
689.419,-2286.56
689.423,-2690.32
689.427,-3240.25
689.431,-4033.26
689.4490000000001,
689.453,
689.467,4777.04
689.471,3968.09
689.475,3409
689.479,2999.49
689.483,2686.61
689.487,2439.78
689.491,2240.07
689.541,1210.5
689.591,906.45
689.641,760.83
689.691,675.38
689.741,619.2
689.791,579.43
689.841,549.81
689.891,526.88
689.941,508.6
689.991,493.69
690.491,423.08
690.991,398.01
691.491,385.03
691.991,377
692.491,371.49
692.991,367.43
693.491,364.28
693.991,361.74
694.491,359.63
694.991,357.84
695.491,356.28
695.991,354.9
696.491,353.67
696.991,352.55
697.491,351.53
697.991,350.59
698.491,349.71
698.991,348.89
699.491,348.11
699.991,347.38
700.491,346.68
700.991,346.01
701.491,345.37
701.991,344.75
702.491,344.16
702.991,343.58
703.491,343.02
703.991,342.48
704.491,341.95
704.991,341.44
705.491,340.94
705.991,340.44
706.491,339.96
706.991,339.49
707.491,339.03
707.991,338.57
708.491,338.13
708.991,337.69
709.491,337.25
709.991,336.83
710.491,336.4
710.991,335.99
711.491,335.58
711.991,335.17
712.491,334.77
712.991,334.38
713.491,333.99
713.991,333.6
714.491,333.21
714.991,332.84
715.491,332.46
715.991,332.09
716.491,331.72
716.991,331.35
717.491,330.99
717.991,330.63
718.491,330.27
718.991,329.92
719.491,329.57
719.991,329.22
720.491,328.88
720.991,328.53
721.491,328.19
721.991,327.85
722.491,327.52
722.991,327.19
723.491,326.85
723.991,326.53
724.491,326.2
724.991,325.87
725.491,325.55
725.991,325.23
726.491,324.91
726.991,324.59
727.491,324.28
727.991,323.97
728.491,323.65
728.991,323.34
729.491,323.04
729.991,322.73
730.491,322.43
730.991,322.12
731.491,321.82
731.991,321.52
732.491,321.22
732.991,320.93
733.491,320.63
733.991,320.34
734.491,320.05
734.991,319.76
735.491,319.47
735.991,319.18
736.491,318.89
736.991,318.61
737.491,318.33
737.991,318.04
738.491,317.76
738.991,317.48
739.491,317.2
739.991,316.93
740.491,316.65
740.991,316.38
741.491,316.11
741.991,315.83
742.491,315.56
742.991,315.29
743.491,315.03
743.991,314.76
744.491,314.49
744.991,314.23
745.491,313.96
745.991,313.7
746.491,313.44
746.991,313.18
747.491,312.92
747.991,312.66
748.491,312.41
748.991,312.15
749.491,311.9
749.991,311.64
750.491,311.39
750.991,311.14
751.491,310.89
751.991,310.64
752.491,310.39
752.991,310.14
753.491,309.9
753.991,309.65
754.491,309.41
754.991,309.16
755.491,308.92
755.991,308.68
756.491,308.44
756.991,308.2
757.491,307.96
757.991,307.72
758.491,307.49
758.991,307.25
759.491,307.02
759.991,306.78
760.491,306.55
760.991,306.32
761.491,306.09
761.991,305.86
762.491,305.63
762.991,305.4
763.491,305.17
763.991,304.94
764.491,304.72
764.991,304.49
765.491,304.27
765.991,304.04
766.491,303.82
766.991,303.6
767.491,303.38
767.991,303.16
768.491,302.94
768.991,302.72
769.491,302.5
769.991,302.28
770.491,302.07
770.991,301.85
771.491,301.64
771.991,301.42
772.491,301.21
772.991,301
773.491,300.79
773.991,300.58
774.491,300.37
774.991,300.16
775.491,299.95
775.991,299.74
776.491,299.53
776.991,299.33
777.491,299.12
777.991,298.92
778.491,298.71
778.991,298.51
779.491,298.31
779.991,298.1
780.491,297.9
780.991,297.7
781.491,297.5
781.991,297.3
782.491,297.1
782.991,296.9
783.491,296.71
783.991,296.51
784.491,296.31
784.991,296.12
785.491,295.93
785.991,295.73
786.491,295.54
786.991,295.35
787.491,295.15
787.991,294.96
788.491,294.77
788.991,294.58
789.491,294.39
789.991,294.2
790.491,294.01
790.991,293.83
791.491,293.64
791.991,293.45
792.491,293.27
792.991,293.08
793.491,292.9
793.991,292.72
794.491,292.53
794.991,292.35
795.491,292.17
795.991,291.99
796.491,291.8
796.991,291.62
797.491,291.44
797.991,291.27
798.491,291.09
798.991,290.91
799.491,290.73
799.991,290.56
800.491,290.38
800.991,290.2
801.491,290.03
801.991,289.85
802.491,289.68
802.991,289.51
803.491,289.33
803.991,289.16
804.491,288.99
804.991,288.82
805.491,288.65
805.991,288.48
806.491,288.31
806.991,288.14
807.491,287.97
807.991,287.8
808.491,287.63
808.991,287.47
809.491,287.3
809.991,287.14
810.491,286.97
810.991,286.8
811.491,286.64
811.991,286.48
812.491,286.31
812.991,286.15
813.491,285.99
813.991,285.83
814.491,285.66
814.991,285.5
815.491,285.34
815.991,285.18
816.491,285.02
816.991,284.87
817.491,284.71
817.991,284.55
818.491,284.39
818.991,284.23
819.491,284.08
819.991,283.92
820.491,283.77
820.991,283.61
821.491,283.46
821.991,283.3
822.491,283.15
822.991,283
823.491,282.84
823.991,282.69
824.491,282.54
824.991,282.39
825.491,282.24
825.991,282.09
826.491,281.94
826.991,281.79
827.491,281.64
827.991,281.49
828.491,281.34
828.991,281.19
829.491,281.04
829.991,280.9
830.491,280.75
830.991,280.6
831.491,280.46
831.991,280.31
832.491,280.17
832.991,280.02
833.491,279.88
833.991,279.74
834.491,279.59
834.991,279.45
835.491,279.31
835.991,279.17
836.491,279.02
836.991,278.88
837.491,278.74
837.991,278.6
838.491,278.46
838.991,278.32
839.491,278.18
839.991,278.05
840.491,277.91
840.991,277.77
841.491,277.63
841.991,277.49
842.491,277.36
842.991,277.22
843.491,277.09
843.991,276.95
844.491,276.81
844.991,276.68
845.491,276.54
845.991,276.41
846.491,276.28
846.991,276.14
847.491,276.01
847.991,275.88
848.491,275.75
848.991,275.61
849.491,275.48
849.991,275.35
850.491,275.22
850.991,275.09
851.491,274.96
851.991,274.83
852.491,274.7
852.991,274.57
853.491,274.44
853.991,274.32
854.491,274.19
854.991,274.06
855.491,273.93
855.991,273.81
856.491,273.68
856.991,273.55
857.491,273.43
857.991,273.3
858.491,273.18
858.991,273.05
859.491,272.93
859.991,272.8
860.491,272.68
860.991,272.56
861.491,272.43
861.991,272.31
862.491,272.19
862.991,272.07
863.491,271.94
863.991,271.82
864.491,271.7
864.991,271.58
865.491,271.46
865.991,271.34
866.491,271.22
866.991,271.1
867.491,270.98
867.991,270.86
868.491,270.74
868.991,270.63
869.491,270.51
869.991,270.39
870.491,270.27
870.991,270.16
871.491,270.04
871.991,269.92
872.491,269.81
872.991,269.69
873.491,269.58
873.991,269.46
874.491,269.35
874.991,269.23
875.491,269.12
875.991,269
876.491,268.89
876.991,268.78
877.491,268.66
877.991,268.55
878.491,268.44
878.991,268.33
879.491,268.21
879.991,268.1
880.491,267.99
880.991,267.88
881.491,267.77
881.991,267.66
882.491,267.55
882.991,267.44
883.491,267.33
883.991,267.22
884.491,267.11
884.991,267
885.491,266.89
885.991,266.78
886.491,266.68
886.991,266.57
887.491,266.46
887.991,266.35
888.491,266.25
888.991,266.14
889.491,266.03
889.991,265.93
890.491,265.82
890.991,265.72
891.491,265.61
891.991,265.51
892.491,265.4
892.991,265.3
893.491,265.19
893.991,265.09
894.491,264.99
894.991,264.88
895.491,264.78
895.991,264.68
896.491,264.57
896.991,264.47
897.491,264.37
897.991,264.27
898.491,264.17
898.991,264.06
899.491,263.96
899.991,263.86
900.491,263.76
900.991,263.66
901.491,263.56
901.991,263.46
902.491,263.36
902.991,263.26
903.491,263.16
903.991,263.06
904.491,262.97
904.991,262.87
905.491,262.77
905.991,262.67
906.491,262.57
906.991,262.48
907.491,262.38
907.991,262.28
908.491,262.18
908.991,262.09
909.491,261.99
909.991,261.9
910.491,261.8
910.991,261.7
911.491,261.61
911.991,261.51
912.491,261.42
912.991,261.32
913.491,261.23
913.991,261.14
914.491,261.04
914.991,260.95
915.491,260.85
915.991,260.76
916.491,260.67
916.991,260.58
917.491,260.48
917.991,260.39
918.491,260.3
918.991,260.21
919.491,260.11
919.991,260.02
920.491,259.93
920.991,259.84
921.491,259.75
921.991,259.66
922.491,259.57
922.991,259.48
923.491,259.39
923.991,259.3
924.491,259.21
924.991,259.12
925.491,259.03
925.991,258.94
926.491,258.85
926.991,258.76
927.491,258.67
927.991,258.59
928.491,258.5
928.991,258.41
929.491,258.32
929.991,258.24
930.491,258.15
930.991,258.06
931.491,257.98
931.991,257.89
932.491,257.8
932.991,257.72
933.491,257.63
933.991,257.54
934.491,257.46
934.991,257.37
935.491,257.29
935.991,257.2
936.491,257.12
936.991,257.03
937.491,256.95
937.991,256.87
938.491,256.78
938.991,256.7
939.491,256.61
939.991,256.53
940.491,256.45
940.991,256.36
941.491,256.28
941.991,256.2
942.491,256.12
942.991,256.03
943.491,255.95
943.991,255.87
944.491,255.79
944.991,255.71
945.491,255.63
945.991,255.54
946.491,255.46
946.991,255.38
947.491,255.3
947.991,255.22
948.491,255.14
948.991,255.06
949.491,254.98
949.991,254.9
950.491,254.82
950.991,254.74
951.491,254.66
951.991,254.58
952.491,254.51
952.991,254.43
953.491,254.35
953.991,254.27
954.491,254.19
954.991,254.11
955.491,254.04
955.991,253.96
956.491,253.88
956.991,253.8
957.491,253.73
957.991,253.65
958.491,253.57
958.991,253.5
959.491,253.42
959.991,253.34
960.491,253.27
960.991,253.19
961.491,253.12
961.991,253.04
962.491,252.96
962.991,252.89
963.491,252.81
963.991,252.74
964.491,252.66
964.991,252.59
965.491,252.52
965.991,252.44
966.491,252.37
966.991,252.29
967.491,252.22
967.991,252.15
968.491,252.07
968.991,252
969.491,251.93
969.991,251.85
970.491,251.78
970.991,251.71
971.491,251.63
971.991,251.56
972.491,251.49
972.991,251.42
973.491,251.35
973.991,251.27
974.491,251.2
974.991,251.13
975.491,251.06
975.991,250.99
976.491,250.92
976.991,250.85
977.491,250.78
977.991,250.7
978.491,250.63
978.991,250.56
979.491,250.49
979.991,250.42
980.491,250.35
980.991,250.28
981.491,250.22
981.991,250.15
982.491,250.08
982.991,250.01
983.491,249.94
983.991,249.87
984.491,249.8
984.991,249.73
985.491,249.66
985.991,249.6
986.491,249.53
986.991,249.46
987.491,249.39
987.991,249.32
988.491,249.26
988.991,249.19
989.491,249.12
989.991,249.06
990.491,248.99
990.991,248.92
991.491,248.85
991.991,248.79
992.491,248.72
992.991,248.66
993.491,248.59
993.991,248.52
994.491,248.46
994.991,248.39
995.491,248.33
995.991,248.26
996.491,248.2
996.991,248.13
997.491,248.07
997.991,248
998.491,247.94
998.991,247.87
999.491,247.81
999.991,247.74
1000.491,247.68
1000.991,247.61
1001.491,247.55
1001.991,247.49
1002.491,247.42
1002.991,247.36
1003.491,247.3
1003.991,247.23
1004.491,247.17
1004.991,247.11
1005.491,247.04
1005.991,246.98
1006.491,246.92
1006.991,246.85
1007.491,246.79
1007.991,246.73
1008.491,246.67
1008.991,246.61
1009.491,246.54
1009.991,246.48
1010.491,246.42
1010.991,246.36
1011.491,246.3
1011.991,246.24
1012.491,246.17
1012.991,246.11
1013.491,246.05
1013.991,245.99
1014.491,245.93
1014.991,245.87
1015.491,245.81
1015.991,245.75
1016.491,245.69
1016.991,245.63
1017.491,245.57
1017.991,245.51
1018.491,245.45
1018.991,245.39
1019.491,245.33
1019.991,245.27
1020.491,245.21
1020.991,245.15
1021.491,245.09
1021.991,245.03
1022.491,244.98
1022.991,244.92
1023.491,244.86
1023.991,244.8
1024.491,244.74
1024.991,244.68
1025.491,244.62
1025.991,244.57
1026.491,244.51
1026.991,244.45
1027.491,244.39
1027.991,244.34
1028.491,244.28
1028.991,244.22
1029.491,244.16
1029.991,244.11
1030.491,244.05
1030.991,243.99
1031.491,243.94
1031.991,243.88
1032.491,243.82
1032.991,243.77
1033.491,243.71
1033.991,243.65
1034.491,243.6
1034.991,243.54
1035.491,243.49
1035.991,243.43
1036.491,243.37
1036.991,243.32
1037.491,243.26
1037.991,243.21
1038.491,243.15
1038.991,243.1
1039.491,243.04
1039.991,242.99
1040.491,242.93
1040.991,242.88
1041.491,242.82
1041.991,242.77
1042.491,242.71
1042.991,242.66
1043.491,242.61
1043.991,242.55
1044.491,242.5
1044.991,242.44
1045.491,242.39
1045.991,242.34
1046.491,242.28
1046.991,242.23
1047.491,242.18
1047.991,242.12
1048.491,242.07
1048.991,242.02
1049.491,241.96
1049.991,241.91
1050.491,241.86
1050.991,241.8
1051.491,241.75
1051.991,241.7
1052.491,241.65
1052.991,241.59
1053.491,241.54
1053.991,241.49
1054.491,241.44
1054.991,241.39
1055.491,241.33
1055.991,241.28
1056.491,241.23
1056.991,241.18
1057.491,241.13
1057.991,241.08
1058.491,241.03
1058.991,240.97
1059.491,240.92
1059.991,240.87
1060.491,240.82
1060.991,240.77
1061.491,240.72
1061.991,240.67
1062.491,240.62
1062.991,240.57
1063.491,240.52
1063.991,240.47
1064.491,240.42
1064.991,240.37
1065.491,240.32
1065.991,240.27
1066.491,240.22
1066.991,240.17
1067.491,240.12
1067.991,240.07
1068.491,240.02
1068.991,239.97
1069.491,239.92
1069.991,239.87
1070.491,239.82
1070.991,239.78
1071.491,239.73
1071.991,239.68
1072.491,239.63
1072.991,239.58
1073.491,239.53
1073.991,239.48
1074.491,239.44
1074.991,239.39
1075.491,239.34
1075.991,239.29
1076.491,239.24
1076.991,239.19
1077.491,239.15
1077.991,239.1
1078.491,239.05
1078.991,239
1079.491,238.96
1079.991,238.91
1080.491,238.86
1080.991,238.82
1081.491,238.77
1081.991,238.72
1082.491,238.67
1082.991,238.63
1083.491,238.58
1083.991,238.53
1084.491,238.49
1084.991,238.44
1085.491,238.39
1085.991,238.35
1086.491,238.3
1086.991,238.26
1087.491,238.21
1087.991,238.16
1088.491,238.12
1088.991,238.07
1089.491,238.03
1089.991,237.98
1090.491,237.93
1090.991,237.89
1091.491,237.84
1091.991,237.8
1092.491,237.75
1092.991,237.71
1093.491,237.66
1093.991,237.62
1094.491,237.57
1094.991,237.53
1095.491,237.48
1095.991,237.44
1096.491,237.39
1096.991,237.35
1097.491,237.3
1097.991,237.26
1098.491,237.22
1098.991,237.17
1099.491,237.13
1099.991,237.08
1100.491,237.04
1100.991,237
1101.491,236.95
1101.991,236.91
1102.491,236.86
1102.991,236.82
1103.491,236.78
1103.991,236.73
1104.491,236.69
1104.991,236.65
1105.491,236.6
1105.991,236.56
1106.491,236.52
1106.991,236.47
1107.491,236.43
1107.991,236.39
1108.491,236.34
1108.991,236.3
1109.491,236.26
1109.991,236.22
1110.491,236.17
1110.991,236.13
1111.491,236.09
1111.991,236.05
1112.491,236.01
1112.991,235.96
1113.491,235.92
1113.991,235.88
1114.491,235.84
1114.991,235.8
1115.491,235.75
1115.991,235.71
1116.491,235.67
1116.991,235.63
1117.491,235.59
1117.991,235.55
1118.491,235.5
1118.991,235.46
1119.491,235.42
1119.991,235.38
1120.491,235.34
1120.991,235.3
1121.491,235.26
1121.991,235.22
1122.491,235.18
1122.991,235.13
1123.491,235.09
1123.991,235.05
1124.491,235.01
1124.991,234.97
1125.491,234.93
1125.991,234.89
1126.491,234.85
1126.991,234.81
1127.491,234.77
1127.991,234.73
1128.491,234.69
1128.991,234.65
1129.491,234.61
1129.991,234.57
1130.491,234.53
1130.991,234.49
1131.491,234.45
1131.991,234.41
1132.491,234.37
1132.991,234.33
1133.491,234.3
1133.991,234.26
1134.491,234.22
1134.991,234.18
1135.491,234.14
1135.991,234.1
1136.491,234.06
1136.991,234.02
1137.491,233.98
1137.991,233.94
1138.491,233.91
1138.991,233.87
1139.491,233.83
1139.991,233.79
1140.491,233.75
1140.991,233.71
1141.491,233.67
1141.991,233.64
1142.491,233.6
1142.991,233.56
1143.491,233.52
1143.991,233.48
1144.491,233.45
1144.991,233.41
1145.491,233.37
1145.991,233.33
1146.491,233.3
1146.991,233.26
1147.491,233.22
1147.991,233.18
1148.491,233.15
1148.991,233.11
1149.491,233.07
1149.991,233.03
1150.491,233
1150.991,232.96
1151.491,232.92
1151.991,232.89
1152.491,232.85
1152.991,232.81
1153.491,232.77
1153.991,232.74
1154.491,232.7
1154.991,232.66
1155.491,232.63
1155.991,232.59
1156.491,232.56
1156.991,232.52
1157.491,232.48
1157.991,232.45
1158.491,232.41
1158.991,232.37
1159.491,232.34
1159.991,232.3
1160.491,232.27
1160.991,232.23
1161.491,232.19
1161.991,232.16
1162.491,232.12
1162.991,232.09
1163.491,232.05
1163.991,232.02
1164.491,231.98
1164.991,231.94
1165.491,231.91
1165.991,231.87
1166.491,231.84
1166.991,231.8
1167.491,231.77
1167.991,231.73
1168.491,231.7
1168.991,231.66
1169.491,231.63
1169.991,231.59
1170.491,231.56
1170.991,231.52
1171.491,231.49
1171.991,231.45
1172.491,231.42
1172.991,231.38
1173.491,231.35
1173.991,231.32
1174.491,231.28
1174.991,231.25
1175.491,231.21
1175.991,231.18
1176.491,231.14
1176.991,231.11
1177.491,231.08
1177.991,231.04
1178.491,231.01
1178.991,230.97
1179.491,230.94
1179.991,230.91
1180.491,230.87
1180.991,230.84
1181.491,230.81
1181.991,230.77
1182.491,230.74
1182.991,230.7
1183.491,230.67
1183.991,230.64
1184.491,230.6
1184.991,230.57
1185.491,230.54
1185.991,230.51
1186.491,230.47
1186.991,230.44
1187.491,230.41
1187.991,230.37
1188.491,230.34
1188.991,230.31
1189.491,230.27
1189.991,230.24
1190.491,230.21
1190.991,230.18
1191.491,230.14
1191.991,230.11
1192.491,230.08
1192.991,230.05
1193.491,230.01
1193.991,229.98
1194.491,229.95
1194.991,229.92
1195.491,229.88
1195.991,229.85
1196.491,229.82
1196.991,229.79
1197.491,229.76
1197.991,229.72
1198.491,229.69
1198.991,229.66
1199.491,229.63
1199.991,229.6
1200.491,229.57
1200.991,229.53
1201.491,229.5
1201.991,229.47
1202.491,229.44
1202.991,229.41
1203.491,229.38
1203.991,229.34
1204.491,229.31
1204.991,229.28
1205.491,229.25
1205.991,229.22
1206.491,229.19
1206.991,229.16
1207.491,229.13
1207.991,229.1
1208.491,229.06
1208.991,229.03
1209.491,229
1209.991,228.97
1210.491,228.94
1210.991,228.91
1211.491,228.88
1211.991,228.85
1212.491,228.82
1212.991,228.79
1213.491,228.76
1213.991,228.73
1214.491,228.7
1214.991,228.67
1215.491,228.64
1215.991,228.61
1216.491,228.58
1216.991,228.55
1217.491,228.52
1217.991,228.49
1218.491,228.46
1218.991,228.43
1219.491,228.4
1219.991,228.37
1220.491,228.34
1220.991,228.31
1221.491,228.28
1221.991,228.25
1222.491,228.22
1222.991,228.19
1223.491,228.16
1223.991,228.13
1224.491,228.1
1224.991,228.07
1225.491,228.04
1225.991,228.01
1226.491,227.98
1226.991,227.95
1227.491,227.92
1227.991,227.89
1228.491,227.86
1228.991,227.84
1229.491,227.81
1229.991,227.78
1230.491,227.75
1230.991,227.72
1231.491,227.69
1231.991,227.66
1232.491,227.63
1232.991,227.6
1233.491,227.58
1233.991,227.55
1234.491,227.52
1234.991,227.49
1235.491,227.46
1235.991,227.43
1236.491,227.4
1236.991,227.38
1237.491,227.35
1237.991,227.32
1238.491,227.29
1238.991,227.26
1239.491,227.23
1239.991,227.21
1240.491,227.18
1240.991,227.15
1241.491,227.12
1241.991,227.09
1242.491,227.07
1242.991,227.04
1243.491,227.01
1243.991,226.98
1244.491,226.95
1244.991,226.93
1245.491,226.9
1245.991,226.87
1246.491,226.84
1246.991,226.82
1247.491,226.79
1247.991,226.76
1248.491,226.73
1248.991,226.71
1249.491,226.68
1249.991,226.65
1250.491,226.62
1250.991,226.6
1251.491,226.57
1251.991,226.54
1252.491,226.52
1252.991,226.49
1253.491,226.46
1253.991,226.43
1254.491,226.41
1254.991,226.38
1255.491,226.35
1255.991,226.33
1256.491,226.3
1256.991,226.27
1257.491,226.25
1257.991,226.22
1258.491,226.19
1258.991,226.17
1259.491,226.14
1259.991,226.11
1260.491,226.09
1260.991,226.06
1261.491,226.03
1261.991,226.01
1262.491,225.98
1262.991,225.95
1263.491,225.93
1263.991,225.9
1264.491,225.88
1264.991,225.85
1265.491,225.82
1265.991,225.8
1266.491,225.77
1266.991,225.74
1267.491,225.72
1267.991,225.69
1268.491,225.67
1268.991,225.64
1269.491,225.62
1269.991,225.59
1270.491,225.56
1270.991,225.54
1271.491,225.51
1271.991,225.49
1272.491,225.46
1272.991,225.44
1273.491,225.41
1273.991,225.38
1274.491,225.36
1274.991,225.33
1275.491,225.31
1275.991,225.28
1276.491,225.26
1276.991,225.23
1277.491,225.21
1277.991,225.18
1278.491,225.16
1278.991,225.13
1279.491,225.11
1279.991,225.08
1280.491,225.06
1280.991,225.03
1281.491,225.01
1281.991,224.98
1282.491,224.96
1282.991,224.93
1283.491,224.91
1283.991,224.88
1284.491,224.86
1284.991,224.83
1285.491,224.81
1285.991,224.78
1286.491,224.76
1286.991,224.73
1287.491,224.71
1287.991,224.68
1288.491,224.66
1288.991,224.63
1289.491,224.61
1289.991,224.59
1290.491,224.56
1290.991,224.54
1291.491,224.51
1291.991,224.49
1292.491,224.46
1292.991,224.44
1293.491,224.42
1293.991,224.39
1294.491,224.37
1294.991,224.34
1295.491,224.32
1295.991,224.3
1296.491,224.27
1296.991,224.25
1297.491,224.22
1297.991,224.2
1298.491,224.18
1298.991,224.15
1299.491,224.13
1299.991,224.1
1300.491,224.08
1300.991,224.06
1301.491,224.03
1301.991,224.01
1302.491,223.99
1302.991,223.96
1303.491,223.94
1303.991,223.92
1304.491,223.89
1304.991,223.87
1305.491,223.85
1305.991,223.82
1306.491,223.8
1306.991,223.78
1307.491,223.75
1307.991,223.73
1308.491,223.71
1308.991,223.68
1309.491,223.66
1309.991,223.64
1310.491,223.61
1310.991,223.59
1311.491,223.57
1311.991,223.54
1312.491,223.52
1312.991,223.5
1313.491,223.48
1313.991,223.45
1314.491,223.43
1314.991,223.41
1315.491,223.38
1315.991,223.36
1316.491,223.34
1316.991,223.32
1317.491,223.29
1317.991,223.27
1318.491,223.25
1318.991,223.23
1319.491,223.2
1319.991,223.18
1320.491,223.16
1320.991,223.14
1321.491,223.11
1321.991,223.09
1322.491,223.07
1322.991,223.05
1323.491,223.02
1323.991,223
1324.491,222.98
1324.991,222.96
1325.491,222.94
1325.991,222.91
1326.491,222.89
1326.991,222.87
1327.491,222.85
1327.991,222.83
1328.491,222.8
1328.991,222.78
1329.491,222.76
1329.991,222.74
1330.491,222.72
1330.991,222.69
1331.491,222.67
1331.991,222.65
1332.491,222.63
1332.991,222.61
1333.491,222.59
1333.991,222.56
1334.491,222.54
1334.991,222.52
1335.491,222.5
1335.991,222.48
1336.491,222.46
1336.991,222.43
1337.491,222.41
1337.991,222.39
1338.491,222.37
1338.991,222.35
1339.491,222.33
1339.991,222.31
1340.491,222.28
1340.991,222.26
1341.491,222.24
1341.991,222.22
1342.491,222.2
1342.991,222.18
1343.491,222.16
1343.991,222.14
1344.7,222.11
1345.2,222.09
1345.7,222.06
1346.2,222.04
1346.7,222.02
1347.2,222
1347.7,221.98
1348.2,221.96
1348.7,221.94
1349.2,221.92
1349.7,221.9
1350.2,221.88
1350.7,221.86
1351.2,221.84
1351.7,221.81
1352.2,221.79
1352.7,221.77
1353.2,221.75
1353.7,221.73
1354.2,221.71
1354.7,221.69
1355.2,221.67
1355.7,221.65
1356.2,221.63
1356.7,221.61
1357.2,221.59
1357.7,221.57
1358.2,221.55
1358.7,221.53
1359.2,221.51
1359.7,221.49
1360.2,221.47
1360.7,221.45
1361.2,221.43
1361.7,221.41
1362.2,221.39
1362.7,221.37
1363.2,221.35
1363.7,221.33
1364.2,221.31
1364.7,221.29
1365.2,221.27
1365.7,221.25
1366.2,221.23
1366.7,221.21
1367.2,221.19
1367.7,221.17
1368.2,221.15
1368.7,221.13
1369.2,221.11
1369.7,221.09
1370.2,221.07
1370.7,221.05
1371.2,221.03
1371.7,221.01
1372.2,220.99
1372.7,220.97
1373.2,220.95
1373.7,220.93
1374.2,220.91
1374.7,220.89
1375.2,220.87
1375.7,220.85
1376.2,220.83
1376.7,220.81
1377.2,220.8
1377.7,220.78
1378.2,220.76
1378.7,220.74
1379.2,220.72
1379.7,220.7
1380.2,220.68
1380.7,220.66
1381.2,220.64
1381.7,220.62
1382.2,220.6
1382.7,220.58
1383.2,220.56
1383.7,220.55
1384.2,220.53
1384.7,220.51
1385.2,220.49
1385.7,220.47
1386.2,220.45
1386.7,220.43
1387.2,220.41
1387.7,220.39
1388.2,220.38
1388.7,220.36
1389.2,220.34
1389.7,220.32
1390.2,220.3
1390.7,220.28
1391.2,220.26
1391.7,220.24
1392.2,220.23
1392.7,220.21
1393.2,220.19
1393.7,220.17
1394.2,220.15
1394.7,220.13
1395.2,220.11
1395.7,220.1
1396.2,220.08
1396.7,220.06
1397.2,220.04
1397.7,220.02
1398.2,220
1398.7,219.99
1399.2,219.97
1399.7,219.95
1400.2,219.93
1400.7,219.91
1401.2,219.89
1401.7,219.88
1402.2,219.86
1402.7,219.84
1403.2,219.82
1403.7,219.8
1404.2,219.79
1404.7,219.77
1405.2,219.75
1405.7,219.73
1406.2,219.71
1406.7,219.7
1407.2,219.68
1407.7,219.66
1408.2,219.64
1408.7,219.62
1409.2,219.61
1409.7,219.59
1410.2,219.57
1410.7,219.55
1411.2,219.53
1411.7,219.52
1412.2,219.5
1412.7,219.48
1413.2,219.46
1413.7,219.45
1414.2,219.43
1414.7,219.41
1415.2,219.39
1415.7,219.38
1416.2,219.36
1416.7,219.34
1417.2,219.32
1417.7,219.31
1418.2,219.29
1418.7,219.27
1419.2,219.25
1419.7,219.24
1420.2,219.22
1420.7,219.2
1421.2,219.18
1421.7,219.17
1422.2,219.15
1422.7,219.13
1423.2,219.11
1423.7,219.1
1424.2,219.08
1424.7,219.06
1425.2,219.05
1425.7,219.03
1426.2,219.01
1426.7,218.99
1427.2,218.98
1427.7,218.96
1428.2,218.94
1428.7,218.93
1429.2,218.91
1429.7,218.89
1430.2,218.88
1430.7,218.86
1431.2,218.84
1431.7,218.82
1432.2,218.81
1432.7,218.79
1433.2,218.77
1433.7,218.76
1434.2,218.74
1434.7,218.72
1435.2,218.71
1435.7,218.69
1436.2,218.67
1436.7,218.66
1437.2,218.64
1437.7,218.62
1438.2,218.61
1438.7,218.59
1439.2,218.57
1439.7,218.56
1440.2,218.54
1440.7,218.52
1441.2,218.51
1441.7,218.49
1442.2,218.47
1442.7,218.46
1443.2,218.44
1443.7,218.42
1444.2,218.41
1444.7,218.39
1445.2,218.38
1445.7,218.36
1446.2,218.34
1446.7,218.33
1447.2,218.31
1447.7,218.29
1448.2,218.28
1448.7,218.26
1449.2,218.25
1449.7,218.23
1450.2,218.21
1450.7,218.2
1451.2,218.18
1451.7,218.16
1452.2,218.15
1452.7,218.13
1453.2,218.12
1453.7,218.1
1454.2,218.08
1454.7,218.07
1455.2,218.05
1455.7,218.04
1456.2,218.02
1456.7,218
1457.2,217.99
1457.7,217.97
1458.2,217.96
1458.7,217.94
1459.2,217.92
1459.7,217.91
1460.2,217.89
1460.7,217.88
1461.2,217.86
1461.7,217.85
1462.2,217.83
1462.7,217.81
1463.2,217.8
1463.7,217.78
1464.2,217.77
1464.7,217.75
1465.2,217.74
1465.7,217.72
1466.2,217.71
1466.7,217.69
1467.2,217.67
1467.7,217.66
1468.2,217.64
1468.7,217.63
1469.2,217.61
1469.7,217.6
1470.2,217.58
1470.7,217.57
1471.2,217.55
1471.7,217.54
1472.2,217.52
1472.7,217.5
1473.2,217.49
1473.7,217.47
1474.2,217.46
1474.7,217.44
1475.2,217.43
1475.7,217.41
1476.2,217.4
1476.7,217.38
1477.2,217.37
1477.7,217.35
1478.2,217.34
1478.7,217.32
1479.2,217.31
1479.7,217.29
1480.2,217.28
1480.7,217.26
1481.2,217.25
1481.7,217.23
1482.2,217.22
1482.7,217.2
1483.2,217.19
1483.7,217.17
1484.2,217.16
1484.7,217.14
1485.2,217.13
1485.7,217.11
1486.2,217.1
1486.7,217.08
1487.2,217.07
1487.7,217.05
1488.2,217.04
1488.7,217.02
1489.2,217.01
1489.7,216.99
1490.2,216.98
1490.7,216.96
1491.2,216.95
1491.7,216.93
1492.2,216.92
1492.7,216.91
1493.2,216.89
1493.7,216.88
1494.2,216.86
1494.7,216.85
1495.2,216.83
1495.7,216.82
1496.2,216.8
1496.7,216.79
1497.2,216.77
1497.7,216.76
1498.2,216.75
1498.7,216.73
1499.2,216.72
1499.7,216.7
1500.2,216.69
1500.7,216.67
1501.2,216.66
1501.7,216.64
1502.2,216.63
1502.7,216.62
1503.2,216.6
1503.7,216.59
1504.2,216.57
1504.7,216.56
1505.2,216.54
1505.7,216.53
1506.2,216.52
1506.7,216.5
1507.2,216.49
1507.7,216.47
1508.2,216.46
1508.7,216.45
1509.2,216.43
1509.7,216.42
1510.2,216.4
1510.7,216.39
1511.2,216.37
1511.7,216.36
1512.2,216.35
1512.7,216.33
1513.2,216.32
1513.7,216.31
1514.2,216.29
1514.7,216.28
1515.2,216.26
1515.7,216.25
1516.2,216.24
1516.7,216.22
1517.2,216.21
1517.7,216.19
1518.2,216.18
1518.7,216.17
1519.2,216.15
1519.7,216.14
1520.2,216.12
1520.7,216.11
1521.2,216.1
1521.7,216.08
1522.2,216.07
1522.7,216.06
1523.2,216.04
1523.7,216.03
1524.2,216.02
1524.7,216
1525.2,215.99
1525.7,215.97
1526.2,215.96
1526.7,215.95
1527.2,215.93
1527.7,215.92
1528.2,215.91
1528.7,215.89
1529.2,215.88
1529.7,215.87
1530.2,215.85
1530.7,215.84
1531.2,215.83
1531.7,215.81
1532.2,215.8
1532.7,215.79
1533.2,215.77
1533.7,215.76
1534.2,215.75
1534.7,215.73
1535.2,215.72
1535.7,215.71
1536.2,215.69
1536.7,215.68
1537.2,215.67
1537.7,215.65
1538.2,215.64
1538.7,215.63
1539.2,215.61
1539.7,215.6
1540.2,215.59
1540.7,215.57
1541.2,215.56
1541.7,215.55
1542.2,215.53
1542.7,215.52
1543.2,215.51
1543.7,215.5
1544.2,215.48
1544.7,215.47
1545.2,215.46
1545.7,215.44
1546.2,215.43
1546.7,215.42
1547.2,215.4
1547.7,215.39
1548.2,215.38
1548.7,215.37
1549.2,215.35
1549.7,215.34
1550.2,215.33
1550.7,215.31
1551.2,215.3
1551.7,215.29
1552.2,215.28
1552.7,215.26
1553.2,215.25
1553.7,215.24
1554.2,215.22
1554.7,215.21
1555.2,215.2
1555.7,215.19
1556.2,215.17
1556.7,215.16
1557.2,215.15
1557.7,215.14
1558.2,215.12
1558.7,215.11
1559.2,215.1
1559.7,215.08
1560.2,215.07
1560.7,215.06
1561.2,215.05
1561.7,215.03
1562.2,215.02
1562.7,215.01
1563.2,215
1563.7,214.98
1564.2,214.97
1564.7,214.96
1565.2,214.95
1565.7,214.93
1566.2,214.92
1566.7,214.91
1567.2,214.9
1567.7,214.88
1568.2,214.87
1568.7,214.86
1569.2,214.85
1569.7,214.84
1570.2,214.82
1570.7,214.81
1571.2,214.8
1571.7,214.79
1572.2,214.77
1572.7,214.76
1573.2,214.75
1573.7,214.74
1574.2,214.72
1574.7,214.71
1575.2,214.7
1575.7,214.69
1576.2,214.68
1576.7,214.66
1577.2,214.65
1577.7,214.64
1578.2,214.63
1578.7,214.62
1579.2,214.6
1579.7,214.59
1580.2,214.58
1580.7,214.57
1581.2,214.56
1581.7,214.54
1582.2,214.53
1582.7,214.52
1583.2,214.51
1583.7,214.5
1584.2,214.48
1584.7,214.47
1585.2,214.46
1585.7,214.45
1586.2,214.44
1586.7,214.42
1587.2,214.41
1587.7,214.4
1588.2,214.39
1588.7,214.38
1589.2,214.36
1589.7,214.35
1590.2,214.34
1590.7,214.33
1591.2,214.32
1591.7,214.31
1592.2,214.29
1592.7,214.28
1593.2,214.27
1593.7,214.26
1594.2,214.25
1594.7,214.23
1595.2,214.22
1595.7,214.21
1596.2,214.2
1596.7,214.19
1597.2,214.18
1597.7,214.16
1598.2,214.15
1598.7,214.14
1599.2,214.13
1599.7,214.12
1600.2,214.11
1600.7,214.1
1601.2,214.08
1601.7,214.07
1602.2,214.06
1602.7,214.05
1603.2,214.04
1603.7,214.03
1604.2,214.01
1604.7,214
1605.2,213.99
1605.7,213.98
1606.2,213.97
1606.7,213.96
1607.2,213.95
1607.7,213.93
1608.2,213.92
1608.7,213.91
1609.2,213.9
1609.7,213.89
1610.2,213.88
1610.7,213.87
1611.2,213.86
1611.7,213.84
1612.2,213.83
1612.7,213.82
1613.2,213.81
1613.7,213.8
1614.2,213.79
1614.7,213.78
1615.2,213.77
1615.7,213.75
1616.2,213.74
1616.7,213.73
1617.2,213.72
1617.7,213.71
1618.2,213.7
1618.7,213.69
1619.2,213.68
1619.7,213.66
1620.2,213.65
1620.7,213.64
1621.2,213.63
1621.7,213.62
1622.2,213.61
1622.7,213.6
1623.2,213.59
1623.7,213.58
1624.2,213.57
1624.7,213.55
1625.2,213.54
1625.7,213.53
1626.2,213.52
1626.7,213.51
1627.2,213.5
1627.7,213.49
1628.2,213.48
1628.7,213.47
1629.2,213.46
1629.7,213.45
1630.2,213.43
1630.7,213.42
1631.2,213.41
1631.7,213.4
1632.2,213.39
1632.7,213.38
1633.2,213.37
1633.7,213.36
1634.2,213.35
1634.7,213.34
1635.2,213.33
1635.7,213.32
1636.2,213.3
1636.7,213.29
1637.2,213.28
1637.7,213.27
1638.2,213.26
1638.7,213.25
1639.2,213.24
1639.7,213.23
1640.2,213.22
1640.7,213.21
1641.2,213.2
1641.7,213.19
1642.2,213.18
1642.7,213.17
1643.2,213.16
1643.7,213.14
1644.2,213.13
1644.7,213.12
1645.2,213.11
1645.7,213.1
1646.2,213.09
1646.7,213.08
1647.2,213.07
1647.7,213.06
1648.2,213.05
1648.7,213.04
1649.2,213.03
1649.7,213.02
1650.2,213.01
1650.7,213
1651.2,212.99
1651.7,212.98
1652.2,212.97
1652.7,212.96
1653.2,212.95
1653.7,212.94
1654.2,212.93
1654.7,212.92
1655.2,212.9
1655.7,212.89
1656.2,212.88
1656.7,212.87
1657.2,212.86
1657.7,212.85
1658.2,212.84
1658.7,212.83
1659.2,212.82
1659.7,212.81
1660.2,212.8
1660.7,212.79
1661.2,212.78
1661.7,212.77
1662.2,212.76
1662.7,212.75
1663.2,212.74
1663.7,212.73
1664.2,212.72
1664.7,212.71
1665.2,212.7
1665.7,212.69
1666.2,212.68
1666.7,212.67
1667.2,212.66
1667.7,212.65
1668.2,212.64
1668.7,212.63
1669.2,212.62
1669.7,212.61
1670.2,212.6
1670.7,212.59
1671.2,212.58
1671.7,212.57
1672.2,212.56
1672.7,212.55
1673.2,212.54
1673.7,212.53
1674.2,212.52
1674.7,212.51
1675.2,212.5
1675.7,212.49
1676.2,212.48
1676.7,212.47
1677.2,212.46
1677.7,212.45
1678.2,212.44
1678.7,212.43
1679.2,212.42
1679.7,212.41
1680.2,212.4
1680.7,212.39
1681.2,212.38
1681.7,212.37
1682.2,212.36
1682.7,212.35
1683.2,212.34
1683.7,212.33
1684.2,212.32
1684.7,212.31
1685.2,212.3
1685.7,212.29
1686.2,212.28
1686.7,212.27
1687.2,212.26
1687.7,212.26
1688.2,212.25
1688.7,212.24
1689.2,212.23
1689.7,212.22
1690.2,212.21
1690.7,212.2
1691.2,212.19
1691.7,212.18
1692.2,212.17
1692.7,212.16
1693.2,212.15
1693.7,212.14
1694.2,212.13
1694.7,212.12
1695.2,212.11
1695.7,212.1
1696.2,212.09
1696.7,212.08
1697.2,212.07
1697.7,212.06
1698.2,212.05
1698.7,212.04
1699.2,212.03
1699.7,212.03
1700.2,212.02
1700.7,212.01
1701.2,212
1701.7,211.99
1702.2,211.98
1702.7,211.97
1703.2,211.96
1703.7,211.95
1704.2,211.94
1704.7,211.93
1705.2,211.92
1705.7,211.91
1706.2,211.9
1706.7,211.89
1707.2,211.88
1707.7,211.88
1708.2,211.87
1708.7,211.86
1709.2,211.85
1709.7,211.84
1710.2,211.83
1710.7,211.82
1711.2,211.81
1711.7,211.8
1712.2,211.79
1712.7,211.78
1713.2,211.77
1713.7,211.76
1714.2,211.76
1714.7,211.75
1715.2,211.74
1715.7,211.73
1716.2,211.72
1716.7,211.71
1717.2,211.7
1717.7,211.69
1718.2,211.68
1718.7,211.67
1719.2,211.66
1719.7,211.65
1720.2,211.65
1720.7,211.64
1721.2,211.63
1721.7,211.62
1722.2,211.61
1722.7,211.6
1723.2,211.59
1723.7,211.58
1724.2,211.57
1724.7,211.56
1725.2,211.56
1725.7,211.55
1726.2,211.54
1726.7,211.53
1727.2,211.52
1727.7,211.51
1728.2,211.5
1728.7,211.49
1729.2,211.48
1729.7,211.47
1730.2,211.47
1730.7,211.46
1731.2,211.45
1731.7,211.44
1732.2,211.43
1732.7,211.42
1733.2,211.41
1733.7,211.4
1734.2,211.39
1734.7,211.39
1735.2,211.38
1735.7,211.37
1736.2,211.36
1736.7,211.35
1737.2,211.34
1737.7,211.33
1738.2,211.32
1738.7,211.32
1739.2,211.31
1739.7,211.3
1740.2,211.29
1740.7,211.28
1741.2,211.27
1741.7,211.26
1742.2,211.25
1742.7,211.25
1743.2,211.24
1743.7,211.23
1744.2,211.22
1744.7,211.21
1745.2,211.2
1745.7,211.19
1746.2,211.18
1746.7,211.18
1747.2,211.17
1747.7,211.16
1748.2,211.15
1748.7,211.14
1749.2,211.13
1749.7,211.12
1750.2,211.12
1750.7,211.11
1751.2,211.1
1751.7,211.09
1752.2,211.08
1752.7,211.07
1753.2,211.06
1753.7,211.06
1754.2,211.05
1754.7,211.04
1755.2,211.03
1755.7,211.02
1756.2,211.01
1756.7,211
1757.2,211
1757.7,210.99
1758.2,210.98
1758.7,210.97
1759.2,210.96
1759.7,210.95
1760.2,210.95
1760.7,210.94
1761.2,210.93
1761.7,210.92
1762.2,210.91
1762.7,210.9
1763.2,210.9
1763.7,210.89
1764.2,210.88
1764.7,210.87
1765.2,210.86
1765.7,210.85
1766.2,210.85
1766.7,210.84
1767.2,210.83
1767.7,210.82
1768.2,210.81
1768.7,210.8
1769.2,210.8
1769.7,210.79
1770.2,210.78
1770.7,210.77
1771.2,210.76
1771.7,210.75
1772.2,210.75
1772.7,210.74
1773.2,210.73
1773.7,210.72
1774.2,210.71
1774.7,210.7
1775.2,210.7
1775.7,210.69
1776.2,210.68
1776.7,210.67
1777.2,210.66
1777.7,210.66
1778.2,210.65
1778.7,210.64
1779.2,210.63
1779.7,210.62
1780.2,210.62
1780.7,210.61
1781.2,210.6
1781.7,210.59
1782.2,210.58
1782.7,210.57
1783.2,210.57
1783.7,210.56
1784.2,210.55
1784.7,210.54
1785.2,210.53
1785.7,210.53
1786.2,210.52
1786.7,210.51
1787.2,210.5
1787.7,210.49
1788.2,210.49
1788.7,210.48
1789.2,210.47
1789.7,210.46
1790.2,210.45
1790.7,210.45
1791.2,210.44
1791.7,210.43
1792.2,210.42
1792.7,210.41
1793.2,210.41
1793.7,210.4
1794.2,210.39
1794.7,210.38
1795.2,210.38
1795.7,210.37
1796.2,210.36
1796.7,210.35
1797.2,210.34
1797.7,210.34
1798.2,210.33
1798.7,210.32
1799.2,210.31
1799.7,210.3
1800.2,210.3
1800.7,210.29
1801.2,210.28
1801.7,210.27
1802.2,210.27
1802.7,210.26
1803.2,210.25
1803.7,210.24
1804.2,210.23
1804.7,210.23
1805.2,210.22
1805.7,210.21
1806.2,210.2
1806.7,210.2
1807.2,210.19
1807.7,210.18
1808.2,210.17
1808.7,210.16
1809.2,210.16
1809.7,210.15
1810.2,210.14
1810.7,210.13
1811.2,210.13
1811.7,210.12
1812.2,210.11
1812.7,210.1
1813.2,210.1
1813.7,210.09
1814.2,210.08
1814.7,210.07
1815.2,210.07
1815.7,210.06
1816.2,210.05
1816.7,210.04
1817.2,210.03
1817.7,210.03
1818.2,210.02
1818.7,210.01
1819.2,210
1819.7,210
1820.2,209.99
1820.7,209.98
1821.2,209.97
1821.7,209.97
1822.2,209.96
1822.7,209.95
1823.2,209.94
1823.7,209.94
1824.2,209.93
1824.7,209.92
1825.2,209.91
1825.7,209.91
1826.2,209.9
1826.7,209.89
1827.2,209.88
1827.7,209.88
1828.2,209.87
1828.7,209.86
1829.2,209.85
1829.7,209.85
1830.2,209.84
1830.7,209.83
1831.2,209.82
1831.7,209.82
1832.2,209.81
1832.7,209.8
1833.2,209.8
1833.7,209.79
1834.2,209.78
1834.7,209.77
1835.2,209.77
1835.7,209.76
1836.2,209.75
1836.7,209.74
1837.2,209.74
1837.7,209.73
1838.2,209.72
1838.7,209.71
1839.2,209.71
1839.7,209.7
1840.2,209.69
1840.7,209.69
1841.2,209.68
1841.7,209.67
1842.2,209.66
1842.7,209.66
1843.2,209.65
1843.7,209.64
1844.2,209.63
1844.7,209.63
1845.2,209.62
1845.7,209.61
1846.2,209.61
1846.7,209.6
1847.2,209.59
1847.7,209.58
1848.2,209.58
1848.7,209.57
1849.2,209.56
1849.7,209.56
1850.2,209.55
1850.7,209.54
1851.2,209.53
1851.7,209.53
1852.2,209.52
1852.7,209.51
1853.2,209.51
1853.7,209.5
1854.2,209.49
1854.7,209.48
1855.2,209.48
1855.7,209.47
1856.2,209.46
1856.7,209.46
1857.2,209.45
1857.7,209.44
1858.2,209.44
1858.7,209.43
1859.2,209.42
1859.7,209.41
1860.2,209.41
1860.7,209.4
1861.2,209.39
1861.7,209.39
1862.2,209.38
1862.7,209.37
1863.2,209.36
1863.7,209.36
1864.2,209.35
1864.7,209.34
1865.2,209.34
1865.7,209.33
1866.2,209.32
1866.7,209.32
1867.2,209.31
1867.7,209.3
1868.2,209.3
1868.7,209.29
1869.2,209.28
1869.7,209.27
1870.2,209.27
1870.7,209.26
1871.2,209.25
1871.7,209.25
1872.2,209.24
1872.7,209.23
1873.2,209.23
1873.7,209.22
1874.2,209.21
1874.7,209.21
1875.2,209.2
1875.7,209.19
1876.2,209.19
1876.7,209.18
1877.2,209.17
1877.7,209.16
1878.2,209.16
1878.7,209.15
1879.2,209.14
1879.7,209.14
1880.2,209.13
1880.7,209.12
1881.2,209.12
1881.7,209.11
1882.2,209.1
1882.7,209.1
1883.2,209.09
1883.7,209.08
1884.2,209.08
1884.7,209.07
1885.2,209.06
1885.7,209.06
1886.2,209.05
1886.7,209.04
1887.2,209.04
1887.7,209.03
1888.2,209.02
1888.7,209.02
1889.2,209.01
1889.7,209
1890.2,209
1890.7,208.99
1891.2,208.98
1891.7,208.98
1892.2,208.97
1892.7,208.96
1893.2,208.96
1893.7,208.95
1894.2,208.94
1894.7,208.94
1895.2,208.93
1895.7,208.92
1896.2,208.92
1896.7,208.91
1897.2,208.9
1897.7,208.9
1898.2,208.89
1898.7,208.88
1899.2,208.88
1899.7,208.87
1900.2,208.86
1900.7,208.86
1901.2,208.85
1901.7,208.84
1902.2,208.84
1902.7,208.83
1903.2,208.82
1903.7,208.82
1904.2,208.81
1904.7,208.81
1905.2,208.8
1905.7,208.79
1906.2,208.79
1906.7,208.78
1907.2,208.77
1907.7,208.77
1908.2,208.76
1908.7,208.75
1909.2,208.75
1909.7,208.74
1910.2,208.73
1910.7,208.73
1911.2,208.72
1911.7,208.71
1912.2,208.71
1912.7,208.7
1913.2,208.7
1913.7,208.69
1914.2,208.68
1914.7,208.68
1915.2,208.67
1915.7,208.66
1916.2,208.66
1916.7,208.65
1917.2,208.64
1917.7,208.64
1918.2,208.63
1918.7,208.63
1919.2,208.62
1919.7,208.61
1920.2,208.61
1920.7,208.6
1921.2,208.59
1921.7,208.59
1922.2,208.58
1922.7,208.57
1923.2,208.57
1923.7,208.56
1924.2,208.56
1924.7,208.55
1925.2,208.54
1925.7,208.54
1926.2,208.53
1926.7,208.52
1927.2,208.52
1927.7,208.51
1928.2,208.51
1928.7,208.5
1929.2,208.49
1929.7,208.49
1930.2,208.48
1930.7,208.47
1931.2,208.47
1931.7,208.46
1932.2,208.46
1932.7,208.45
1933.2,208.44
1933.7,208.44
1934.2,208.43
1934.7,208.42
1935.2,208.42
1935.7,208.41
1936.2,208.41
1936.7,208.4
1937.2,208.39
1937.7,208.39
1938.2,208.38
1938.7,208.38
1939.2,208.37
1939.7,208.36
1940.2,208.36
1940.7,208.35
1941.2,208.34
1941.7,208.34
1942.2,208.33
1942.7,208.33
1943.2,208.32
1943.7,208.31
1944.2,208.31
1944.7,208.3
1945.2,208.3
1945.7,208.29
1946.2,208.28
1946.7,208.28
1947.2,208.27
1947.7,208.27
1948.2,208.26
1948.7,208.25
1949.2,208.25
1949.7,208.24
1950.2,208.24
1950.7,208.23
1951.2,208.22
1951.7,208.22
1952.2,208.21
1952.7,208.21
1953.2,208.2
1953.7,208.19
1954.2,208.19
1954.7,208.18
1955.2,208.18
1955.7,208.17
1956.2,208.16
1956.7,208.16
1957.2,208.15
1957.7,208.15
1958.2,208.14
1958.7,208.13
1959.2,208.13
1959.7,208.12
1960.2,208.12
1960.7,208.11
1961.2,208.1
1961.7,208.1
1962.2,208.09
1962.7,208.09
1963.2,208.08
1963.7,208.07
1964.2,208.07
1964.7,208.06
1965.2,208.06
1965.7,208.05
1966.2,208.05
1966.7,208.04
1967.2,208.03
1967.7,208.03
1968.2,208.02
1968.7,208.02
1969.2,208.01
1969.7,208
1970.2,208
1970.7,207.99
1971.2,207.99
1971.7,207.98
1972.2,207.98
1972.7,207.97
1973.2,207.96
1973.7,207.96
1974.2,207.95
1974.7,207.95
1975.2,207.94
1975.7,207.93
1976.2,207.93
1976.7,207.92
1977.2,207.92
1977.7,207.91
1978.2,207.91
1978.7,207.9
1979.2,207.89
1979.7,207.89
1980.2,207.88
1980.7,207.88
1981.2,207.87
1981.7,207.87
1982.2,207.86
1982.7,207.85
1983.2,207.85
1983.7,207.84
1984.2,207.84
1984.7,207.83
1985.2,207.83
1985.7,207.82
1986.2,207.81
1986.7,207.81
1987.2,207.8
1987.7,207.8
1988.2,207.79
1988.7,207.79
1989.2,207.78
1989.7,207.77
1990.2,207.77
1990.7,207.76
1991.2,207.76
1991.7,207.75
1992.2,207.75
1992.7,207.74
1993.2,207.74
1993.7,207.73
1994.2,207.72
1994.7,207.72
1995.2,207.71
1995.7,207.71
1996.2,207.7
1996.7,207.7
1997.2,207.69
1997.7,207.68
1998.2,207.68
1998.7,207.67
1999.2,207.67
